 Acceler X, Acceler Y, Acceler Z, Gyro X, Gyro Y, Gyro Z
0.9309082,0.31640625,-0.17553711,0.9367676,0.32470703,-0.16918945
0.9279785,0.3173828,-0.17895508,0.9367676,0.32470703,-0.16918945
0.9301758,0.32788086,-0.18920898,0.9279785,0.3173828,-0.17895508
0.9169922,0.3388672,-0.18847656,0.9301758,0.32788086,-0.18920898
0.9099121,0.3408203,-0.19042969,0.9301758,0.32788086,-0.18920898
0.8955078,0.38208008,-0.1940918,0.9099121,0.3408203,-0.19042969
0.892334,0.44580078,-0.1928711,0.8955078,0.38208008,-0.1940918
0.8925781,0.46435547,-0.19628906,0.8955078,0.38208008,-0.1940918
0.90625,0.4543457,-0.21533203,0.8925781,0.46435547,-0.19628906
0.91137695,0.43115234,-0.21240234,0.90625,0.4543457,-0.21533203
0.91308594,0.41381836,-0.2006836,0.90625,0.4543457,-0.21533203
0.9055176,0.3720703,-0.17163086,0.91308594,0.41381836,-0.2006836
0.8881836,0.3955078,-0.15576172,0.9055176,0.3720703,-0.17163086
0.8881836,0.41308594,-0.16479492,0.9055176,0.3720703,-0.17163086
0.9013672,0.46240234,-0.16015625,0.8881836,0.41308594,-0.16479492
0.8942871,0.5061035,-0.14819336,0.9013672,0.46240234,-0.16015625
0.8820801,0.50512695,-0.13085938,0.9013672,0.46240234,-0.16015625
0.85546875,0.49658203,-0.107177734,0.8820801,0.50512695,-0.13085938
0.85180664,0.52856445,-0.100097656,0.85546875,0.49658203,-0.107177734
0.8676758,0.54663086,-0.09765625,0.85546875,0.49658203,-0.107177734
0.87841797,0.57177734,-0.100097656,0.8676758,0.54663086,-0.09765625
0.875,0.59472656,-0.096191406,0.87841797,0.57177734,-0.100097656
0.8691406,0.59765625,-0.099853516,0.87841797,0.57177734,-0.100097656
0.8586426,0.59716797,-0.099853516,0.8691406,0.59765625,-0.099853516
0.83203125,0.61157227,-0.1081543,0.8586426,0.59716797,-0.099853516
0.83569336,0.59765625,-0.10131836,0.83203125,0.61157227,-0.1081543
0.8310547,0.62109375,-0.0847168,0.83569336,0.59765625,-0.10131836
0.8120117,0.6298828,-0.088134766,0.8310547,0.62109375,-0.0847168
0.8066406,0.6281738,-0.095214844,0.8120117,0.6298828,-0.088134766
0.78808594,0.6533203,-0.09692383,0.8066406,0.6281738,-0.095214844
0.7775879,0.6923828,-0.07348633,0.78808594,0.6533203,-0.09692383
0.78100586,0.7246094,-0.064208984,0.7775879,0.6923828,-0.07348633
0.7824707,0.74560547,-0.05834961,0.78100586,0.7246094,-0.064208984
0.7675781,0.7414551,-0.07055664,0.7824707,0.74560547,-0.05834961
0.75219727,0.7507324,-0.07543945,0.7675781,0.7414551,-0.07055664
0.7277832,0.8117676,-0.09008789,0.75219727,0.7507324,-0.07543945
0.73046875,0.82958984,-0.084228516,0.7277832,0.8117676,-0.09008789
0.72143555,0.8249512,-0.08154297,0.73046875,0.82958984,-0.084228516
0.6916504,0.80200195,-0.087402344,0.72143555,0.8249512,-0.08154297
0.64819336,0.78564453,-0.088378906,0.6916504,0.80200195,-0.087402344
0.63671875,0.8166504,-0.09057617,0.64819336,0.78564453,-0.088378906
0.63305664,0.8569336,-0.08691406,0.63671875,0.8166504,-0.09057617
0.62280273,0.83618164,-0.08886719,0.63305664,0.8569336,-0.08691406
0.61694336,0.8395996,-0.09423828,0.62280273,0.83618164,-0.08886719
0.5827637,0.86328125,-0.09423828,0.61694336,0.8395996,-0.09423828
0.54907227,0.8967285,-0.09472656,0.5827637,0.86328125,-0.09423828
0.54418945,0.9003906,-0.092285156,0.54907227,0.8967285,-0.09472656
0.5205078,0.8762207,-0.095214844,0.54418945,0.9003906,-0.092285156
0.4645996,0.89038086,-0.09106445,0.5205078,0.8762207,-0.095214844
0.43969727,0.91259766,-0.095703125,0.4645996,0.89038086,-0.09106445
0.41064453,0.9519043,-0.087890625,0.43969727,0.91259766,-0.095703125
0.38549805,0.98583984,-0.11669922,0.41064453,0.9519043,-0.087890625
0.3708496,1.0180664,-0.15234375,0.38549805,0.98583984,-0.11669922
0.35205078,1.0371094,-0.14526367,0.3708496,1.0180664,-0.15234375
0.28881836,1.0725098,-0.07055664,0.35205078,1.0371094,-0.14526367
0.24926758,1.0664063,-0.037353516,0.28881836,1.0725098,-0.07055664
0.17602539,0.873291,-0.064941406,0.24926758,1.0664063,-0.037353516
0.17578125,0.88964844,-0.078125,0.17602539,0.873291,-0.064941406
0.18115234,0.9868164,-0.064697266,0.17602539,0.873291,-0.064941406
0.13500977,1.0029297,-0.010986328,0.18115234,0.9868164,-0.064697266
0.09057617,0.92285156,0.002441406,0.13500977,1.0029297,-0.010986328
0.07788086,0.8635254,0.013183594,0.13500977,1.0029297,-0.010986328
0.034423828,0.8466797,0.064697266,0.07788086,0.8635254,0.013183594
0.015625,0.9086914,0.0715332,0.034423828,0.8466797,0.064697266
0.024902344,0.91967773,0.07373047,0.034423828,0.8466797,0.064697266
0.014160156,0.92211914,0.1015625,0.024902344,0.91967773,0.07373047
0.004394531,0.8718262,0.11987305,0.014160156,0.92211914,0.1015625
-0.007080078,0.861084,0.14770508,0.014160156,0.92211914,0.1015625
-0.022216797,0.8359375,0.17333984,-0.007080078,0.861084,0.14770508
-0.05126953,0.80200195,0.13916016,-0.022216797,0.8359375,0.17333984
-0.061767578,0.8322754,0.12231445,-0.022216797,0.8359375,0.17333984
-0.053955078,0.9057617,0.1352539,-0.061767578,0.8322754,0.12231445
-0.013916016,0.86083984,0.16308594,-0.053955078,0.9057617,0.1352539
0.005126953,0.83740234,0.17675781,-0.053955078,0.9057617,0.1352539
-0.004638672,0.8503418,0.15649414,0.005126953,0.83740234,0.17675781
-0.037353516,0.9194336,0.13378906,-0.004638672,0.8503418,0.15649414
-0.05053711,0.9536133,0.14672852,-0.004638672,0.8503418,0.15649414
-0.041748047,0.9223633,0.12475586,-0.05053711,0.9536133,0.14672852
0.018554688,0.8432617,0.119140625,-0.041748047,0.9223633,0.12475586
0.013671875,0.82177734,0.12915039,-0.041748047,0.9223633,0.12475586
-0.057617188,0.8544922,0.19702148,0.013671875,0.82177734,0.12915039
-0.08300781,0.9355469,0.2109375,-0.057617188,0.8544922,0.19702148
-0.07861328,0.97436523,0.2006836,-0.08300781,0.9355469,0.2109375
-0.080322266,0.96777344,0.1965332,-0.07861328,0.97436523,0.2006836
-0.08959961,0.9501953,0.1850586,-0.080322266,0.96777344,0.1965332
-0.09350586,0.95654297,0.18017578,-0.08959961,0.9501953,0.1850586
-0.083984375,0.9736328,0.18066406,-0.09350586,0.95654297,0.18017578
-0.08666992,0.9953613,0.1862793,-0.083984375,0.9736328,0.18066406
-0.08911133,1.015625,0.1965332,-0.08666992,0.9953613,0.1862793
-0.10522461,1.0102539,0.21118164,-0.08911133,1.015625,0.1965332
-0.1003418,0.98583984,0.2277832,-0.10522461,1.0102539,0.21118164
-0.103759766,1.0056152,0.23632813,-0.1003418,0.98583984,0.2277832
-0.10571289,1.0620117,0.24536133,-0.103759766,1.0056152,0.23632813
-0.10913086,1.0432129,0.234375,-0.10571289,1.0620117,0.24536133
-0.111816406,0.99853516,0.22973633,-0.10913086,1.0432129,0.234375
-0.13549805,0.9572754,0.24487305,-0.111816406,0.99853516,0.22973633
-0.13769531,0.98461914,0.26953125,-0.13549805,0.9572754,0.24487305
-0.12768555,0.99121094,0.2849121,-0.13769531,0.98461914,0.26953125
-0.10888672,0.9523926,0.30004883,-0.12768555,0.99121094,0.2849121
-0.10986328,0.951416,0.28979492,-0.10888672,0.9523926,0.30004883
-0.10668945,0.9772949,0.27783203,-0.10986328,0.951416,0.28979492
-0.07836914,0.982666,0.30737305,-0.10668945,0.9772949,0.27783203
-0.10253906,0.91674805,0.31274414,-0.07836914,0.982666,0.30737305
-0.10961914,0.8745117,0.32495117,-0.10253906,0.91674805,0.31274414
-0.12011719,0.8774414,0.33618164,-0.10961914,0.8745117,0.32495117
-0.09692383,0.9460449,0.31103516,-0.12011719,0.8774414,0.33618164
-0.078125,0.97875977,0.30273438,-0.09692383,0.9460449,0.31103516
-0.07495117,0.98779297,0.3178711,-0.078125,0.97875977,0.30273438
-0.09301758,0.9440918,0.31298828,-0.07495117,0.98779297,0.3178711
-0.09814453,0.93652344,0.2944336,-0.09301758,0.9440918,0.31298828
-0.075683594,0.9082031,0.30029297,-0.09814453,0.93652344,0.2944336
-0.095947266,0.9433594,0.328125,-0.075683594,0.9082031,0.30029297
-0.09375,0.9560547,0.32983398,-0.095947266,0.9433594,0.328125
-0.083496094,0.95166016,0.31445313,-0.09375,0.9560547,0.32983398
-0.08666992,0.9350586,0.30981445,-0.083496094,0.95166016,0.31445313
-0.08129883,0.92871094,0.30615234,-0.083496094,0.95166016,0.31445313
-0.09326172,0.94018555,0.31835938,-0.08129883,0.92871094,0.30615234
-0.10620117,0.9145508,0.3334961,-0.09326172,0.94018555,0.31835938
-0.10620117,0.91430664,0.29858398,-0.09326172,0.94018555,0.31835938
-0.076416016,0.9260254,0.2512207,-0.10620117,0.91430664,0.29858398
-0.05493164,0.9399414,0.24365234,-0.076416016,0.9260254,0.2512207
-0.0546875,0.93652344,0.2421875,-0.076416016,0.9260254,0.2512207
-0.056884766,0.9560547,0.2541504,-0.0546875,0.93652344,0.2421875
-0.0625,0.9667969,0.2734375,-0.056884766,0.9560547,0.2541504
-0.06713867,0.95947266,0.26367188,-0.056884766,0.9560547,0.2541504
-0.05419922,0.93896484,0.2800293,-0.06713867,0.95947266,0.26367188
-0.03491211,0.90405273,0.25805664,-0.05419922,0.93896484,0.2800293
-0.025634766,0.8930664,0.23901367,-0.05419922,0.93896484,0.2800293
-0.026855469,0.93066406,0.20336914,-0.025634766,0.8930664,0.23901367
-0.057128906,1.0478516,0.21118164,-0.026855469,0.93066406,0.20336914
-0.064453125,1.0673828,0.21777344,-0.026855469,0.93066406,0.20336914
-0.06274414,1.0305176,0.22705078,-0.064453125,1.0673828,0.21777344
-0.084228516,0.99560547,0.20385742,-0.06274414,1.0305176,0.22705078
-0.08886719,0.9748535,0.19384766,-0.06274414,1.0305176,0.22705078
-0.09057617,0.9748535,0.17749023,-0.08886719,0.9748535,0.19384766
-0.09106445,1.0056152,0.16674805,-0.09057617,0.9748535,0.17749023
-0.09277344,1.0168457,0.1640625,-0.09057617,0.9748535,0.17749023
-0.09814453,1.0236816,0.16845703,-0.09277344,1.0168457,0.1640625
-0.10571289,1.0192871,0.1628418,-0.09814453,1.0236816,0.16845703
-0.10522461,1.0185547,0.16333008,-0.10571289,1.0192871,0.1628418
-0.095947266,1.005127,0.14794922,-0.10522461,1.0185547,0.16333008
-0.08886719,1.019043,0.1394043,-0.095947266,1.005127,0.14794922
-0.09082031,1.0407715,0.13989258,-0.08886719,1.019043,0.1394043
-0.10229492,1.0600586,0.13378906,-0.09082031,1.0407715,0.13989258
-0.115722656,1.034668,0.14135742,-0.10229492,1.0600586,0.13378906
-0.11987305,1.0178223,0.14575195,-0.115722656,1.034668,0.14135742
-0.11743164,0.95947266,0.13085938,-0.11987305,1.0178223,0.14575195
-0.10986328,0.99194336,0.13842773,-0.11743164,0.95947266,0.13085938
-0.11401367,1.001709,0.13696289,-0.10986328,0.99194336,0.13842773
-0.12451172,1.0185547,0.13452148,-0.11401367,1.001709,0.13696289
-0.14086914,1.0222168,0.09643555,-0.12451172,1.0185547,0.13452148
-0.1381836,1.0290527,0.072753906,-0.14086914,1.0222168,0.09643555
-0.12402344,1.0241699,0.07055664,-0.1381836,1.0290527,0.072753906
-0.14086914,1.0183105,0.06713867,-0.12402344,1.0241699,0.07055664
-0.14453125,1.0107422,0.0546875,-0.14086914,1.0183105,0.06713867
-0.1237793,0.9667969,0.025634766,-0.14453125,1.0107422,0.0546875
-0.103027344,1.0246582,-0.002197266,-0.1237793,0.9667969,0.025634766
-0.09765625,1.046875,-0.015625,-0.103027344,1.0246582,-0.002197266
-0.09423828,1.0268555,-0.046875,-0.09765625,1.046875,-0.015625
-0.11206055,1.0031738,-0.053955078,-0.09423828,1.0268555,-0.046875
-0.1184082,0.9975586,-0.045410156,-0.11206055,1.0031738,-0.053955078
-0.13110352,1.0056152,-0.03515625,-0.1184082,0.9975586,-0.045410156
-0.1418457,1.0009766,-0.06665039,-0.13110352,1.0056152,-0.03515625
-0.14526367,0.9992676,-0.09887695,-0.1418457,1.0009766,-0.06665039
-0.13745117,1.0112305,-0.17480469,-0.14526367,0.9992676,-0.09887695
-0.14770508,1.0410156,-0.20483398,-0.13745117,1.0112305,-0.17480469
-0.15673828,1.0356445,-0.2055664,-0.14770508,1.0410156,-0.20483398
-0.17260742,0.99365234,-0.20458984,-0.15673828,1.0356445,-0.2055664
-0.18823242,0.96606445,-0.21655273,-0.17260742,0.99365234,-0.20458984
-0.19189453,0.95214844,-0.2253418,-0.18823242,0.96606445,-0.21655273
-0.19042969,0.94750977,-0.24169922,-0.19189453,0.95214844,-0.2253418
-0.1809082,0.9655762,-0.2685547,-0.19042969,0.94750977,-0.24169922
-0.171875,0.96069336,-0.28857422,-0.19042969,0.94750977,-0.24169922
-0.16870117,0.9519043,-0.31079102,-0.171875,0.96069336,-0.28857422
-0.19482422,0.9350586,-0.31518555,-0.16870117,0.9519043,-0.31079102
-0.20361328,0.9289551,-0.30029297,-0.16870117,0.9519043,-0.31079102
-0.21264648,0.87939453,-0.30297852,-0.20361328,0.9289551,-0.30029297
-0.22558594,0.88183594,-0.34277344,-0.21264648,0.87939453,-0.30297852
-0.2290039,0.8881836,-0.36621094,-0.21264648,0.87939453,-0.30297852
-0.22949219,0.88964844,-0.40600586,-0.2290039,0.8881836,-0.36621094
-0.24707031,0.91552734,-0.43066406,-0.22949219,0.88964844,-0.40600586
-0.25756836,0.9111328,-0.4345703,-0.22949219,0.88964844,-0.40600586
-0.28173828,0.89282227,-0.4267578,-0.25756836,0.9111328,-0.4345703
-0.31274414,0.8520508,-0.48950195,-0.28173828,0.89282227,-0.4267578
-0.3178711,0.8405762,-0.52368164,-0.28173828,0.89282227,-0.4267578
-0.30517578,0.8227539,-0.5559082,-0.3178711,0.8405762,-0.52368164
-0.31396484,0.87524414,-0.53222656,-0.30517578,0.8227539,-0.5559082
-0.33203125,0.87231445,-0.52075195,-0.30517578,0.8227539,-0.5559082
-0.36645508,0.81933594,-0.5151367,-0.33203125,0.87231445,-0.52075195
-0.36743164,0.78930664,-0.55322266,-0.36645508,0.81933594,-0.5151367
-0.35717773,0.77978516,-0.5769043,-0.36645508,0.81933594,-0.5151367
-0.34228516,0.74316406,-0.6035156,-0.35717773,0.77978516,-0.5769043
-0.34326172,0.71777344,-0.5974121,-0.34228516,0.74316406,-0.6035156
-0.3515625,0.7192383,-0.58813477,-0.34326172,0.71777344,-0.5974121
-0.36743164,0.71191406,-0.5632324,-0.3515625,0.7192383,-0.58813477
-0.3815918,0.638916,-0.6010742,-0.36743164,0.71191406,-0.5632324
-0.37841797,0.61083984,-0.6242676,-0.3815918,0.638916,-0.6010742
-0.36743164,0.58813477,-0.66796875,-0.37841797,0.61083984,-0.6242676
-0.37231445,0.5686035,-0.6784668,-0.36743164,0.58813477,-0.66796875
-0.38378906,0.5698242,-0.66918945,-0.37231445,0.5686035,-0.6784668
-0.4189453,0.59155273,-0.66259766,-0.38378906,0.5698242,-0.66918945
-0.4206543,0.51904297,-0.673584,-0.4189453,0.59155273,-0.66259766
-0.42211914,0.49804688,-0.703125,-0.4206543,0.51904297,-0.673584
-0.41137695,0.5046387,-0.7363281,-0.42211914,0.49804688,-0.703125
-0.4169922,0.5061035,-0.7385254,-0.41137695,0.5046387,-0.7363281
-0.41064453,0.49121094,-0.7409668,-0.4169922,0.5061035,-0.7385254
-0.38183594,0.43676758,-0.75097656,-0.41064453,0.49121094,-0.7409668
-0.35791016,0.37524414,-0.73999023,-0.38183594,0.43676758,-0.75097656
-0.3552246,0.34350586,-0.72436523,-0.35791016,0.37524414,-0.73999023
-0.34375,0.33374023,-0.7597656,-0.3552246,0.34350586,-0.72436523
-0.30444336,0.37329102,-0.826416,-0.34375,0.33374023,-0.7597656
-0.28710938,0.3918457,-0.8623047,-0.30444336,0.37329102,-0.826416
-0.2783203,0.33154297,-0.8991699,-0.28710938,0.3918457,-0.8623047
-0.26953125,0.31860352,-0.87231445,-0.2783203,0.33154297,-0.8991699
-0.29370117,0.3293457,-0.8520508,-0.26953125,0.31860352,-0.87231445
-0.3166504,0.32958984,-0.8483887,-0.29370117,0.3293457,-0.8520508
-0.28735352,0.3371582,-0.8781738,-0.3166504,0.32958984,-0.8483887
-0.2692871,0.3557129,-0.8869629,-0.28735352,0.3371582,-0.8781738
-0.27734375,0.35058594,-0.89331055,-0.2692871,0.3557129,-0.8869629
-0.30322266,0.33129883,-0.89160156,-0.27734375,0.35058594,-0.89331055
-0.3166504,0.32666016,-0.8859863,-0.30322266,0.33129883,-0.89160156
-0.3413086,0.31518555,-0.8869629,-0.3166504,0.32666016,-0.8859863
-0.31030273,0.35302734,-0.88623047,-0.3413086,0.31518555,-0.8869629
-0.31054688,0.36547852,-0.87353516,-0.31030273,0.35302734,-0.88623047
-0.33789063,0.35791016,-0.85302734,-0.31054688,0.36547852,-0.87353516
-0.33740234,0.35009766,-0.84375,-0.33789063,0.35791016,-0.85302734
-0.33251953,0.36279297,-0.8425293,-0.33789063,0.35791016,-0.85302734
-0.34301758,0.36083984,-0.84594727,-0.33251953,0.36279297,-0.8425293
-0.35742188,0.33740234,-0.84399414,-0.34301758,0.36083984,-0.84594727
-0.35009766,0.32836914,-0.8391113,-0.34301758,0.36083984,-0.84594727
-0.3408203,0.33740234,-0.84399414,-0.35009766,0.32836914,-0.8391113
-0.33544922,0.37231445,-0.8276367,-0.3408203,0.33740234,-0.84399414
-0.34594727,0.36450195,-0.8227539,-0.3408203,0.33740234,-0.84399414
-0.3544922,0.34033203,-0.8515625,-0.34594727,0.36450195,-0.8227539
-0.35229492,0.3564453,-0.87158203,-0.3544922,0.34033203,-0.8515625
-0.35620117,0.36328125,-0.87524414,-0.3544922,0.34033203,-0.8515625
-0.35791016,0.34814453,-0.8757324,-0.35620117,0.36328125,-0.87524414
-0.35498047,0.34375,-0.8762207,-0.35791016,0.34814453,-0.8757324
-0.35961914,0.3491211,-0.8664551,-0.35791016,0.34814453,-0.8757324
-0.36108398,0.3540039,-0.86083984,-0.35961914,0.3491211,-0.8664551
-0.3618164,0.35205078,-0.8457031,-0.36108398,0.3540039,-0.86083984
-0.3659668,0.36743164,-0.84375,-0.36108398,0.3540039,-0.86083984
-0.3642578,0.36987305,-0.8630371,-0.3659668,0.36743164,-0.84375
-0.3474121,0.37939453,-0.88378906,-0.3642578,0.36987305,-0.8630371
-0.34594727,0.3815918,-0.8779297,-0.3642578,0.36987305,-0.8630371
-0.36621094,0.37573242,-0.861084,-0.34594727,0.3815918,-0.8779297
-0.36376953,0.37817383,-0.82958984,-0.36621094,0.37573242,-0.861084
-0.36621094,0.36694336,-0.8305664,-0.36621094,0.37573242,-0.861084
-0.34960938,0.359375,-0.8400879,-0.36621094,0.36694336,-0.8305664
-0.3635254,0.3815918,-0.8417969,-0.34960938,0.359375,-0.8400879
-0.3774414,0.38354492,-0.83984375,-0.3635254,0.3815918,-0.8417969
-0.38256836,0.38427734,-0.84399414,-0.3774414,0.38354492,-0.83984375
-0.36865234,0.3955078,-0.85961914,-0.38256836,0.38427734,-0.84399414
-0.34765625,0.42089844,-0.8691406,-0.36865234,0.3955078,-0.85961914
-0.30029297,0.4338379,-0.87402344,-0.34765625,0.42089844,-0.8691406
-0.35180664,0.4111328,-0.9038086,-0.30029297,0.4338379,-0.87402344
-0.38305664,0.47314453,-0.9223633,-0.35180664,0.4111328,-0.9038086
-0.40844727,0.5625,-0.9094238,-0.38305664,0.47314453,-0.9223633
-0.39941406,0.59887695,-1.0427246,-0.40844727,0.5625,-0.9094238
-0.4025879,0.6191406,-1.1201172,-0.39941406,0.59887695,-1.0427246
-0.4885254,0.60913086,-1.2358398,-0.4025879,0.6191406,-1.1201172
-0.5358887,0.45629883,-1.2177734,-0.4885254,0.60913086,-1.2358398
-0.5444336,0.3671875,-1.2021484,-0.5358887,0.45629883,-1.2177734
-0.4885254,0.31567383,-1.21875,-0.5444336,0.3671875,-1.2021484
-0.4753418,0.22290039,-1.1147461,-0.4885254,0.31567383,-1.21875
-0.5415039,0.17797852,-1.0637207,-0.4753418,0.22290039,-1.1147461
-0.69384766,0.17797852,-0.9641113,-0.5415039,0.17797852,-1.0637207
-0.69018555,0.079833984,-1.0734863,-0.69384766,0.17797852,-0.9641113
-0.62524414,0.09448242,-1.1008301,-0.69018555,0.079833984,-1.0734863
-0.6833496,0.37670898,-0.9145508,-0.62524414,0.09448242,-1.1008301
-0.8208008,0.22216797,-0.46289063,-0.6833496,0.37670898,-0.9145508
-0.8310547,0.10595703,-0.2331543,-0.8208008,0.22216797,-0.46289063
-0.8388672,0.06542969,-0.09472656,-0.8310547,0.10595703,-0.2331543
-0.78466797,0.118652344,-0.2241211,-0.8388672,0.06542969,-0.09472656
-0.74560547,0.28808594,-0.3173828,-0.78466797,0.118652344,-0.2241211
-0.65966797,0.34545898,-0.5336914,-0.74560547,0.28808594,-0.3173828
-0.5834961,0.43188477,-0.6489258,-0.65966797,0.34545898,-0.5336914
-0.53271484,0.5378418,-0.6516113,-0.5834961,0.43188477,-0.6489258
-0.4423828,0.5197754,-0.5925293,-0.53271484,0.5378418,-0.6516113
-0.4465332,0.5161133,-0.46850586,-0.4423828,0.5197754,-0.5925293
-0.40234375,0.4658203,-0.4819336,-0.4465332,0.5161133,-0.46850586
-0.39624023,0.26953125,-0.54589844,-0.40234375,0.4658203,-0.4819336
-0.33789063,0.07495117,-0.57373047,-0.39624023,0.26953125,-0.54589844
-0.2980957,0.109375,-0.5336914,-0.39624023,0.26953125,-0.54589844
-0.25024414,0.24438477,-0.45263672,-0.2980957,0.109375,-0.5336914
-0.20996094,0.37353516,-0.54467773,-0.25024414,0.24438477,-0.45263672
-0.25219727,0.21533203,-0.6123047,-0.25024414,0.24438477,-0.45263672
-0.26391602,0.16308594,-0.8417969,-0.25219727,0.21533203,-0.6123047
-0.21850586,0.23901367,-1.0400391,-0.26391602,0.16308594,-0.8417969
-0.24316406,0.25195313,-1.0007324,-0.26391602,0.16308594,-0.8417969
-0.30541992,0.21459961,-0.8273926,-0.24316406,0.25195313,-1.0007324
-0.42333984,0.21679688,-0.654541,-0.30541992,0.21459961,-0.8273926
-0.47827148,0.19506836,-0.6906738,-0.30541992,0.21459961,-0.8273926
-0.4963379,0.17236328,-0.78686523,-0.47827148,0.19506836,-0.6906738
-0.49658203,0.10253906,-0.89746094,-0.4963379,0.17236328,-0.78686523
-0.51904297,0.08251953,-0.92456055,-0.4963379,0.17236328,-0.78686523
-0.5588379,0.075927734,-0.9641113,-0.51904297,0.08251953,-0.92456055
-0.5371094,-0.037109375,-0.9941406,-0.5588379,0.075927734,-0.9641113
-0.5456543,-0.05493164,-0.98950195,-0.5588379,0.075927734,-0.9641113
-0.5024414,0.005126953,-0.94311523,-0.5456543,-0.05493164,-0.98950195
-0.49438477,0.030517578,-0.8815918,-0.5024414,0.005126953,-0.94311523
-0.50805664,0.04638672,-0.85131836,-0.5024414,0.005126953,-0.94311523
-0.5554199,0.0637207,-0.8083496,-0.50805664,0.04638672,-0.85131836
-0.5012207,0.111083984,-0.8666992,-0.5554199,0.0637207,-0.8083496
-0.48754883,0.07104492,-0.8984375,-0.5554199,0.0637207,-0.8083496
-0.4921875,0.09301758,-0.92041016,-0.48754883,0.07104492,-0.8984375
-0.49365234,0.045166016,-0.9099121,-0.4921875,0.09301758,-0.92041016
-0.49902344,0.029785156,-0.88500977,-0.49365234,0.045166016,-0.9099121
-0.49243164,2.44E-04,-0.8581543,-0.49902344,0.029785156,-0.88500977
-0.5058594,0.004150391,-0.8083496,-0.49243164,2.44E-04,-0.8581543
-0.50146484,0.037353516,-0.8022461,-0.5058594,0.004150391,-0.8083496
-0.49194336,0.099365234,-0.8937988,-0.50146484,0.037353516,-0.8022461
-0.49682617,0.1640625,-0.998291,-0.49194336,0.099365234,-0.8937988
-0.5253906,0.16625977,-1.0302734,-0.49682617,0.1640625,-0.998291
-0.5202637,0.16503906,-0.9719238,-0.5253906,0.16625977,-1.0302734
-0.49658203,0.203125,-0.84350586,-0.5202637,0.16503906,-0.9719238
-0.5070801,0.22607422,-0.8066406,-0.49658203,0.203125,-0.84350586
-0.5209961,0.27954102,-0.7897949,-0.5070801,0.22607422,-0.8066406
-0.49658203,0.265625,-0.8601074,-0.5209961,0.27954102,-0.7897949
-0.49658203,0.25732422,-0.890625,-0.49658203,0.265625,-0.8601074
-0.4873047,0.33398438,-0.8449707,-0.49658203,0.25732422,-0.890625
-0.5292969,0.29467773,-0.78881836,-0.4873047,0.33398438,-0.8449707
-0.53466797,0.3010254,-0.7373047,-0.5292969,0.29467773,-0.78881836
-0.51293945,0.3347168,-0.6296387,-0.53466797,0.3010254,-0.7373047
-0.5136719,0.3322754,-0.5217285,-0.51293945,0.3347168,-0.6296387
-0.5192871,0.34301758,-0.48046875,-0.5136719,0.3322754,-0.5217285
-0.5410156,0.35888672,-0.4020996,-0.5192871,0.34301758,-0.48046875
-0.5839844,0.33007813,-0.42016602,-0.5410156,0.35888672,-0.4020996
-0.6086426,0.3239746,-0.43676758,-0.5839844,0.33007813,-0.42016602
-0.60961914,0.3269043,-0.38916016,-0.6086426,0.3239746,-0.43676758
-0.63793945,0.31811523,-0.28344727,-0.60961914,0.3269043,-0.38916016
-0.6647949,0.33740234,-0.24487305,-0.63793945,0.31811523,-0.28344727
-0.70947266,0.33789063,-0.31396484,-0.6647949,0.33740234,-0.24487305
-0.6550293,0.29882813,-0.57788086,-0.70947266,0.33789063,-0.31396484
-0.62524414,0.27807617,-0.66845703,-0.6550293,0.29882813,-0.57788086
-0.7084961,0.29125977,-0.7385254,-0.62524414,0.27807617,-0.66845703
-0.77441406,0.2783203,-0.6623535,-0.7084961,0.29125977,-0.7385254
-0.7709961,0.24267578,-0.62841797,-0.77441406,0.2783203,-0.6623535
-0.8088379,0.095947266,-0.68310547,-0.7709961,0.24267578,-0.62841797
-0.7458496,-0.046875,-0.84472656,-0.8088379,0.095947266,-0.68310547
-0.7351074,0.010009766,-0.90649414,-0.8088379,0.095947266,-0.68310547
-0.81103516,-0.01586914,-0.9328613,-0.7351074,0.010009766,-0.90649414
-0.79174805,-0.12158203,-0.88916016,-0.81103516,-0.01586914,-0.9328613
-0.76220703,-0.15332031,-0.88378906,-0.81103516,-0.01586914,-0.9328613
-0.6936035,-0.109375,-0.85424805,-0.76220703,-0.15332031,-0.88378906
-0.6845703,-0.083984375,-0.87158203,-0.6936035,-0.109375,-0.85424805
-0.67285156,-0.087646484,-0.89501953,-0.6936035,-0.109375,-0.85424805
-0.6538086,-0.1027832,-0.96191406,-0.67285156,-0.087646484,-0.89501953
-0.65185547,-0.17089844,-0.9375,-0.6538086,-0.1027832,-0.96191406
-0.6652832,-0.20532227,-0.9169922,-0.6538086,-0.1027832,-0.96191406
-0.67749023,-0.21972656,-0.8967285,-0.6652832,-0.20532227,-0.9169922
-0.6213379,-0.1459961,-0.8823242,-0.67749023,-0.21972656,-0.8967285
-0.5996094,-0.09814453,-0.8574219,-0.67749023,-0.21972656,-0.8967285
-0.6015625,-0.049560547,-0.76171875,-0.5996094,-0.09814453,-0.8574219
-0.60546875,-0.010498047,-0.75268555,-0.6015625,-0.049560547,-0.76171875
-0.59521484,0.00390625,-0.77905273,-0.6015625,-0.049560547,-0.76171875
-0.5871582,0.012939453,-0.82836914,-0.59521484,0.00390625,-0.77905273
-0.57958984,-0.01171875,-0.8312988,-0.5871582,0.012939453,-0.82836914
-0.592041,0.005859375,-0.8190918,-0.5871582,0.012939453,-0.82836914
-0.609375,0.017333984,-0.7573242,-0.592041,0.005859375,-0.8190918
-0.5900879,0.021972656,-0.7578125,-0.609375,0.017333984,-0.7573242
-0.592041,0.04711914,-0.76831055,-0.609375,0.017333984,-0.7573242
-0.64331055,0.04638672,-0.8027344,-0.592041,0.04711914,-0.76831055
-0.62768555,-0.013427734,-0.8129883,-0.64331055,0.04638672,-0.8027344
-0.62109375,-0.024902344,-0.8078613,-0.62768555,-0.013427734,-0.8129883
-0.60546875,-0.032714844,-0.7651367,-0.62109375,-0.024902344,-0.8078613
-0.58618164,-0.048583984,-0.76342773,-0.60546875,-0.032714844,-0.7651367
-0.5810547,-0.052978516,-0.78344727,-0.58618164,-0.048583984,-0.76342773
-0.5617676,0.005615234,-0.80126953,-0.5810547,-0.052978516,-0.78344727
-0.5998535,0.060791016,-0.8015137,-0.5617676,0.005615234,-0.80126953
-0.5983887,0.012695313,-0.7910156,-0.5998535,0.060791016,-0.8015137
-0.57250977,-0.04638672,-0.77612305,-0.5983887,0.012695313,-0.7910156
-0.5932617,-0.034423828,-0.77612305,-0.57250977,-0.04638672,-0.77612305
-0.5974121,-0.022460938,-0.79125977,-0.5932617,-0.034423828,-0.77612305
-0.5998535,0.004882813,-0.8251953,-0.5974121,-0.022460938,-0.79125977
-0.61328125,0.007080078,-0.8183594,-0.5998535,0.004882813,-0.8251953
-0.6081543,0.001708984,-0.81762695,-0.61328125,0.007080078,-0.8183594
-0.59594727,-0.068603516,-0.80737305,-0.6081543,0.001708984,-0.81762695
-0.6027832,-0.08129883,-0.7878418,-0.59594727,-0.068603516,-0.80737305
-0.6032715,-0.063964844,-0.79248047,-0.6027832,-0.08129883,-0.7878418
-0.5888672,-0.044677734,-0.81884766,-0.6032715,-0.063964844,-0.79248047
-0.58813477,-0.024414063,-0.8220215,-0.5888672,-0.044677734,-0.81884766
-0.5930176,-0.036376953,-0.81811523,-0.58813477,-0.024414063,-0.8220215
-0.5944824,-0.014892578,-0.8322754,-0.5930176,-0.036376953,-0.81811523
-0.58935547,-0.071777344,-0.79907227,-0.5944824,-0.014892578,-0.8322754
-0.5871582,-0.0769043,-0.7915039,-0.58935547,-0.071777344,-0.79907227
-0.59375,-0.02319336,-0.7890625,-0.5871582,-0.0769043,-0.7915039
-0.60717773,0.028808594,-0.7873535,-0.59375,-0.02319336,-0.7890625
-0.6196289,0.035888672,-0.78686523,-0.60717773,0.028808594,-0.7873535
-0.626709,0.049804688,-0.77319336,-0.6196289,0.035888672,-0.78686523
-0.6369629,0.07055664,-0.7392578,-0.626709,0.049804688,-0.77319336
-0.6333008,0.07519531,-0.71850586,-0.6369629,0.07055664,-0.7392578
-0.6254883,0.05444336,-0.69628906,-0.6333008,0.07519531,-0.71850586
-0.6435547,0.053466797,-0.71484375,-0.6254883,0.05444336,-0.69628906
-0.6491699,0.038085938,-0.73291016,-0.6435547,0.053466797,-0.71484375
-0.6323242,0.064208984,-0.7595215,-0.6491699,0.038085938,-0.73291016
-0.6713867,0.12841797,-0.73583984,-0.6323242,0.064208984,-0.7595215
-0.6772461,0.09643555,-0.7426758,-0.6323242,0.064208984,-0.7595215
-0.6496582,-0.055419922,-0.7932129,-0.6772461,0.09643555,-0.7426758
-0.6401367,-0.060791016,-0.78686523,-0.6496582,-0.055419922,-0.7932129
-0.6599121,-0.04248047,-0.78808594,-0.6496582,-0.055419922,-0.7932129
-0.6508789,-0.064208984,-0.80737305,-0.6599121,-0.04248047,-0.78808594
-0.62768555,-0.04248047,-0.7871094,-0.6508789,-0.064208984,-0.80737305
-0.6411133,0.003662109,-0.76904297,-0.6508789,-0.064208984,-0.80737305
-0.6508789,0.08081055,-0.7446289,-0.6411133,0.003662109,-0.76904297
-0.64501953,0.09863281,-0.73779297,-0.6508789,0.08081055,-0.7446289
-0.6279297,0.09863281,-0.74194336,-0.6508789,0.08081055,-0.7446289
-0.6308594,0.1159668,-0.7363281,-0.6279297,0.09863281,-0.74194336
-0.6323242,0.0859375,-0.7438965,-0.6308594,0.1159668,-0.7363281
-0.642334,0.07421875,-0.748291,-0.6308594,0.1159668,-0.7363281
-0.64038086,0.047851563,-0.73706055,-0.642334,0.07421875,-0.748291
-0.6386719,0.022216797,-0.7438965,-0.64038086,0.047851563,-0.73706055
-0.6413574,0.026123047,-0.7619629,-0.64038086,0.047851563,-0.73706055
-0.65356445,0.035888672,-0.77734375,-0.6413574,0.026123047,-0.7619629
-0.65844727,0.045898438,-0.78149414,-0.65356445,0.035888672,-0.77734375
-0.65649414,0.028076172,-0.7727051,-0.65356445,0.035888672,-0.77734375
-0.6425781,-0.024414063,-0.76831055,-0.65649414,0.028076172,-0.7727051
-0.63964844,0,-0.74731445,-0.6425781,-0.024414063,-0.76831055
-0.6386719,0.017578125,-0.7492676,-0.6425781,-0.024414063,-0.76831055
-0.6398926,0.059570313,-0.77563477,-0.6386719,0.017578125,-0.7492676
-0.63671875,0.053955078,-0.7861328,-0.6398926,0.059570313,-0.77563477
-0.63671875,0.048095703,-0.7766113,-0.63671875,0.053955078,-0.7861328
-0.62475586,0.052734375,-0.75024414,-0.63671875,0.048095703,-0.7766113
-0.6386719,0.03125,-0.7216797,-0.62475586,0.052734375,-0.75024414
-0.6374512,0.020507813,-0.72753906,-0.6386719,0.03125,-0.7216797
-0.65356445,0.014892578,-0.7944336,-0.6374512,0.020507813,-0.72753906
-0.6081543,0.056884766,-0.81030273,-0.65356445,0.014892578,-0.7944336
-0.6159668,0.007324219,-0.8017578,-0.6081543,0.056884766,-0.81030273
-0.6467285,0.1027832,-0.9243164,-0.6159668,0.007324219,-0.8017578
-0.6201172,-0.010986328,-0.81396484,-0.6467285,0.1027832,-0.9243164
-0.5998535,-0.048583984,-0.6882324,-0.6201172,-0.010986328,-0.81396484
-0.6308594,-0.06298828,-0.8383789,-0.5998535,-0.048583984,-0.6882324
-0.7290039,0.10546875,-1.0905762,-0.6308594,-0.06298828,-0.8383789
-0.7290039,0.05859375,-1.0300293,-0.7290039,0.10546875,-1.0905762
-0.68652344,0.04296875,-0.79541016,-0.7290039,0.05859375,-1.0300293
-0.65283203,-0.028076172,-0.68066406,-0.68652344,0.04296875,-0.79541016
-0.63842773,-0.12207031,-0.6813965,-0.65283203,-0.028076172,-0.68066406
-0.6357422,-0.17163086,-0.6982422,-0.63842773,-0.12207031,-0.6813965
-0.6245117,-0.123535156,-0.703125,-0.6357422,-0.17163086,-0.6982422
-0.63305664,-0.08178711,-0.6711426,-0.6245117,-0.123535156,-0.703125
-0.6965332,-0.03149414,-0.6257324,-0.63305664,-0.08178711,-0.6711426
-0.6828613,-0.048095703,-0.6140137,-0.6965332,-0.03149414,-0.6257324
-0.67211914,-0.055908203,-0.61328125,-0.6828613,-0.048095703,-0.6140137
-0.6958008,-0.06665039,-0.6027832,-0.67211914,-0.055908203,-0.61328125
-0.71313477,-0.053955078,-0.6086426,-0.6958008,-0.06665039,-0.6027832
-0.70092773,-0.040283203,-0.6323242,-0.71313477,-0.053955078,-0.6086426
-0.6525879,0.007324219,-0.6772461,-0.70092773,-0.040283203,-0.6323242
-0.61938477,0.06982422,-0.6591797,-0.6525879,0.007324219,-0.6772461
-0.6164551,0.061279297,-0.63842773,-0.61938477,0.06982422,-0.6591797
-0.64086914,0.053222656,-0.6257324,-0.6164551,0.061279297,-0.63842773
-0.71240234,0.110839844,-0.6152344,-0.64086914,0.053222656,-0.6257324
-0.73583984,0.13110352,-0.60717773,-0.71240234,0.110839844,-0.6152344
-0.7390137,0.14086914,-0.5908203,-0.73583984,0.13110352,-0.60717773
-0.76416016,0.1538086,-0.5534668,-0.7390137,0.14086914,-0.5908203
-0.7753906,0.14501953,-0.5300293,-0.7390137,0.14086914,-0.5908203
-0.8574219,0.12890625,-0.4946289,-0.7753906,0.14501953,-0.5300293
-0.9050293,0.13891602,-0.5126953,-0.8574219,0.12890625,-0.4946289
-0.91381836,0.140625,-0.5266113,-0.8574219,0.12890625,-0.4946289
-0.8947754,0.171875,-0.52001953,-0.91381836,0.140625,-0.5266113
-0.9116211,0.21606445,-0.5065918,-0.8947754,0.171875,-0.52001953
-0.9345703,0.23754883,-0.51123047,-0.8947754,0.171875,-0.52001953
-0.94140625,0.25512695,-0.54956055,-0.9345703,0.23754883,-0.51123047
-0.89575195,0.24243164,-0.6074219,-0.94140625,0.25512695,-0.54956055
-0.8757324,0.24658203,-0.6286621,-0.94140625,0.25512695,-0.54956055
-0.8305664,0.2626953,-0.607666,-0.8757324,0.24658203,-0.6286621
-0.8339844,0.24291992,-0.54541016,-0.8305664,0.2626953,-0.607666
-0.8479004,0.21313477,-0.5344238,-0.8305664,0.2626953,-0.607666
-0.8300781,0.19067383,-0.57666016,-0.8479004,0.21313477,-0.5344238
-0.79541016,0.22363281,-0.60595703,-0.8300781,0.19067383,-0.57666016
-0.78222656,0.23828125,-0.5974121,-0.8300781,0.19067383,-0.57666016
-0.7722168,0.24707031,-0.55737305,-0.78222656,0.23828125,-0.5974121
-0.76831055,0.22387695,-0.5341797,-0.7722168,0.24707031,-0.55737305
-0.7717285,0.2241211,-0.5371094,-0.7722168,0.24707031,-0.55737305
-0.78222656,0.20043945,-0.55493164,-0.7717285,0.2241211,-0.5371094
-0.7770996,0.2097168,-0.59106445,-0.78222656,0.20043945,-0.55493164
-0.77563477,0.21459961,-0.5949707,-0.7770996,0.2097168,-0.59106445
-0.7817383,0.22167969,-0.58251953,-0.77563477,0.21459961,-0.5949707
-0.7702637,0.2524414,-0.59643555,-0.7817383,0.22167969,-0.58251953
-0.76586914,0.27368164,-0.5888672,-0.7702637,0.2524414,-0.59643555
-0.7758789,0.26000977,-0.5986328,-0.76586914,0.27368164,-0.5888672
-0.7734375,0.24804688,-0.640625,-0.7758789,0.26000977,-0.5986328
-0.7663574,0.25097656,-0.657959,-0.7734375,0.24804688,-0.640625
-0.7570801,0.26342773,-0.6623535,-0.7663574,0.25097656,-0.657959
-0.7531738,0.25634766,-0.64086914,-0.7570801,0.26342773,-0.6623535
-0.7561035,0.24902344,-0.63671875,-0.7531738,0.25634766,-0.64086914
-0.75,0.22436523,-0.6230469,-0.7561035,0.24902344,-0.63671875
-0.75756836,0.21972656,-0.63256836,-0.75,0.22436523,-0.6230469
-0.74487305,0.21435547,-0.6442871,-0.75756836,0.21972656,-0.63256836
-0.7351074,0.234375,-0.64941406,-0.74487305,0.21435547,-0.6442871
-0.7248535,0.23510742,-0.63720703,-0.7351074,0.234375,-0.64941406
-0.7233887,0.23535156,-0.63256836,-0.7248535,0.23510742,-0.63720703
-0.7302246,0.23339844,-0.6118164,-0.7233887,0.23535156,-0.63256836
-0.7392578,0.22070313,-0.61206055,-0.7302246,0.23339844,-0.6118164
-0.736084,0.23022461,-0.62109375,-0.7392578,0.22070313,-0.61206055
-0.7229004,0.24902344,-0.6357422,-0.736084,0.23022461,-0.62109375
-0.7207031,0.24438477,-0.62719727,-0.7229004,0.24902344,-0.6357422
-0.7182617,0.23803711,-0.62768555,-0.7207031,0.24438477,-0.62719727
-0.7216797,0.2163086,-0.6257324,-0.7182617,0.23803711,-0.62768555
-0.7294922,0.2199707,-0.6279297,-0.7216797,0.2163086,-0.6257324
-0.7331543,0.2241211,-0.63916016,-0.7294922,0.2199707,-0.6279297
-0.72094727,0.23608398,-0.65844727,-0.7331543,0.2241211,-0.63916016
-0.72680664,0.24804688,-0.66674805,-0.72094727,0.23608398,-0.65844727
-0.7290039,0.24804688,-0.671875,-0.72680664,0.24804688,-0.66674805
-0.7297363,0.23876953,-0.66748047,-0.7290039,0.24804688,-0.671875
-0.7338867,0.22192383,-0.6623535,-0.7297363,0.23876953,-0.66748047
-0.7265625,0.23583984,-0.65478516,-0.7338867,0.22192383,-0.6623535
-0.72314453,0.26049805,-0.65625,-0.7265625,0.23583984,-0.65478516
-0.7011719,0.2368164,-0.6694336,-0.72314453,0.26049805,-0.65625
-0.7036133,0.24145508,-0.6706543,-0.72314453,0.26049805,-0.65625
-0.701416,0.25219727,-0.6435547,-0.7036133,0.24145508,-0.6706543
-0.69970703,0.2409668,-0.62231445,-0.701416,0.25219727,-0.6435547
-0.7038574,0.24438477,-0.6166992,-0.701416,0.25219727,-0.6435547
-0.6933594,0.25878906,-0.62280273,-0.7038574,0.24438477,-0.6166992
-0.6953125,0.22094727,-0.65844727,-0.6933594,0.25878906,-0.62280273
-0.6899414,0.21166992,-0.65649414,-0.6933594,0.25878906,-0.62280273
-0.7060547,0.21142578,-0.6611328,-0.6899414,0.21166992,-0.65649414
-0.69018555,0.22583008,-0.68725586,-0.7060547,0.21142578,-0.6611328
-0.6826172,0.2290039,-0.67822266,-0.7060547,0.21142578,-0.6611328
-0.6838379,0.21923828,-0.6594238,-0.6826172,0.2290039,-0.67822266
-0.66186523,0.1616211,-0.6064453,-0.6838379,0.21923828,-0.6594238
-0.67407227,0.15283203,-0.5786133,-0.6838379,0.21923828,-0.6594238
-0.66186523,0.1875,-0.5957031,-0.67407227,0.15283203,-0.5786133
-0.60961914,0.1875,-0.6015625,-0.66186523,0.1875,-0.5957031
-0.6118164,0.19995117,-0.5871582,-0.66186523,0.1875,-0.5957031
-0.6020508,0.20678711,-0.5588379,-0.6118164,0.19995117,-0.5871582
-0.58447266,0.31225586,-0.654541,-0.6020508,0.20678711,-0.5588379
-0.5739746,0.33642578,-0.69506836,-0.6020508,0.20678711,-0.5588379
-0.5600586,0.34545898,-0.6750488,-0.5739746,0.33642578,-0.69506836
-0.58618164,0.3725586,-0.5788574,-0.5600586,0.34545898,-0.6750488
-0.5913086,0.40454102,-0.5366211,-0.5600586,0.34545898,-0.6750488
-0.58447266,0.64990234,-0.5395508,-0.5913086,0.40454102,-0.5366211
-0.546875,0.9345703,-0.63916016,-0.58447266,0.64990234,-0.5395508
-0.49560547,0.9313965,-0.63305664,-0.546875,0.9345703,-0.63916016
-0.48828125,0.7529297,-0.5847168,-0.49560547,0.9313965,-0.63305664
-0.48339844,0.6513672,-0.5263672,-0.48828125,0.7529297,-0.5847168
-0.4284668,0.5983887,-0.4946289,-0.48339844,0.6513672,-0.5263672
-0.41845703,0.60180664,-0.38720703,-0.4284668,0.5983887,-0.4946289
-0.47680664,0.6777344,-0.109375,-0.41845703,0.60180664,-0.38720703
-0.46557617,0.69555664,9.77E-04,-0.47680664,0.6777344,-0.109375
-0.3930664,0.75,0.030761719,-0.46557617,0.69555664,9.77E-04
-0.41259766,1.0661621,-0.15771484,-0.3930664,0.75,0.030761719
-0.38476563,1.1433105,-0.14355469,-0.41259766,1.0661621,-0.15771484
-0.45141602,1.0844727,-0.03564453,-0.38476563,1.1433105,-0.14355469
-0.48242188,1.1750488,0.003417969,-0.45141602,1.0844727,-0.03564453
-0.4729004,1.2180176,0.004150391,-0.48242188,1.1750488,0.003417969
-0.4868164,1.2116699,-0.08911133,-0.4729004,1.2180176,0.004150391
-0.46435547,1.1464844,-0.21777344,-0.4868164,1.2116699,-0.08911133
-0.38232422,1.0864258,-0.2524414,-0.46435547,1.1464844,-0.21777344
-0.33203125,0.9223633,-0.13793945,-0.38232422,1.0864258,-0.2524414
-0.35888672,0.92822266,-0.10986328,-0.33203125,0.9223633,-0.13793945
-0.32055664,0.9104004,-0.03564453,-0.35888672,0.92822266,-0.10986328
-0.38427734,0.92700195,-0.06958008,-0.32055664,0.9104004,-0.03564453
-0.22680664,0.93359375,-0.05053711,-0.38427734,0.92700195,-0.06958008
-0.27514648,0.9848633,-4.88E-04,-0.22680664,0.93359375,-0.05053711
-0.24438477,1.0356445,0.026123047,-0.27514648,0.9848633,-4.88E-04
-0.3034668,1.0673828,0.007324219,-0.24438477,1.0356445,0.026123047
-0.31835938,1.109375,-0.014892578,-0.3034668,1.0673828,0.007324219
-0.34375,1.1210938,-0.030029297,-0.31835938,1.109375,-0.014892578
-0.41186523,1.0327148,-0.007080078,-0.34375,1.1210938,-0.030029297
-0.43554688,1.0600586,-0.011962891,-0.41186523,1.0327148,-0.007080078
-0.3798828,1.1169434,0.076171875,-0.43554688,1.0600586,-0.011962891
-0.4814453,1.0854492,0.1875,-0.3798828,1.1169434,0.076171875
-0.5124512,1.0883789,0.20532227,-0.4814453,1.0854492,0.1875
-0.5493164,1.064209,0.28149414,-0.5124512,1.0883789,0.20532227
-0.5812988,0.9938965,0.36108398,-0.5493164,1.064209,0.28149414
-0.6364746,0.9667969,0.35839844,-0.5493164,1.064209,0.28149414
-0.6418457,0.99316406,0.34057617,-0.6364746,0.9667969,0.35839844
-0.60009766,0.99975586,0.41796875,-0.6418457,0.99316406,0.34057617
-0.6484375,0.9836426,0.45043945,-0.6418457,0.99316406,0.34057617
-0.66381836,0.97631836,0.51904297,-0.6484375,0.9836426,0.45043945
-0.6142578,0.83618164,0.63842773,-0.66381836,0.97631836,0.51904297
-0.6179199,0.734375,0.7128906,-0.66381836,0.97631836,0.51904297
-0.6911621,0.67993164,0.7097168,-0.6179199,0.734375,0.7128906
-0.7163086,0.6875,0.60668945,-0.6911621,0.67993164,0.7097168
-0.6672363,0.65478516,0.53808594,-0.6911621,0.67993164,0.7097168
-0.5895996,0.56811523,0.38720703,-0.6672363,0.65478516,0.53808594
-0.5788574,0.4921875,0.27490234,-0.5895996,0.56811523,0.38720703
-0.5722656,0.48242188,0.26953125,-0.5895996,0.56811523,0.38720703
-0.592041,0.49047852,0.2529297,-0.5722656,0.48242188,0.26953125
-0.57250977,0.45092773,0.21118164,-0.592041,0.49047852,0.2529297
-0.58618164,0.44067383,0.16333008,-0.592041,0.49047852,0.2529297
-0.576416,0.43310547,0.1184082,-0.58618164,0.44067383,0.16333008
-0.5678711,0.53881836,0.040771484,-0.576416,0.43310547,0.1184082
-0.5661621,0.59814453,0.009033203,-0.576416,0.43310547,0.1184082
-0.56591797,0.77563477,-0.10131836,-0.5661621,0.59814453,0.009033203
-0.6213379,0.79711914,-0.115722656,-0.56591797,0.77563477,-0.10131836
-0.6796875,0.8173828,-0.083740234,-0.56591797,0.77563477,-0.10131836
-0.6447754,0.5866699,-0.20703125,-0.6796875,0.8173828,-0.083740234
-0.56689453,0.38476563,-0.421875,-0.6447754,0.5866699,-0.20703125
-0.60913086,0.40820313,-0.49487305,-0.56689453,0.38476563,-0.421875
-0.66015625,0.4326172,-0.57128906,-0.60913086,0.40820313,-0.49487305
-0.57470703,0.42114258,-0.60424805,-0.66015625,0.4326172,-0.57128906
-0.5444336,0.4650879,-0.59814453,-0.57470703,0.42114258,-0.60424805
-0.6479492,0.43847656,-0.5864258,-0.5444336,0.4650879,-0.59814453
-0.611084,0.37548828,-0.59716797,-0.6479492,0.43847656,-0.5864258
-0.63842773,0.3161621,-0.5476074,-0.611084,0.37548828,-0.59716797
-0.6928711,0.33251953,-0.58618164,-0.63842773,0.3161621,-0.5476074
-0.63183594,0.36328125,-0.61621094,-0.6928711,0.33251953,-0.58618164
-0.60498047,0.40795898,-0.66430664,-0.63183594,0.36328125,-0.61621094
-0.61083984,0.4477539,-0.6062012,-0.60498047,0.40795898,-0.66430664
-0.68237305,0.39892578,-0.41845703,-0.61083984,0.4477539,-0.6062012
-0.72802734,0.42578125,-0.34936523,-0.68237305,0.39892578,-0.41845703
-0.72558594,0.53271484,-0.37060547,-0.72802734,0.42578125,-0.34936523
-0.6723633,0.6303711,-0.42944336,-0.72558594,0.53271484,-0.37060547
-0.6459961,0.64038086,-0.44921875,-0.6723633,0.6303711,-0.42944336
-0.670166,0.6906738,-0.42041016,-0.6459961,0.64038086,-0.44921875
-0.70751953,0.6555176,-0.30981445,-0.670166,0.6906738,-0.42041016
-0.7192383,0.61694336,-0.2841797,-0.70751953,0.6555176,-0.30981445
-0.8383789,0.638916,-0.26660156,-0.7192383,0.61694336,-0.2841797
-0.7819824,0.64086914,-0.29760742,-0.8383789,0.638916,-0.26660156
-0.73413086,0.62353516,-0.34814453,-0.7819824,0.64086914,-0.29760742
-0.67211914,0.72875977,-0.30371094,-0.73413086,0.62353516,-0.34814453
-0.63549805,0.6875,-0.31274414,-0.67211914,0.72875977,-0.30371094
-0.65283203,0.6723633,-0.32202148,-0.63549805,0.6875,-0.31274414
-0.67529297,0.701416,-0.35668945,-0.65283203,0.6723633,-0.32202148
-0.6491699,0.7963867,-0.29516602,-0.67529297,0.701416,-0.35668945
-0.6604004,0.7861328,-0.28100586,-0.6491699,0.7963867,-0.29516602
-0.7006836,0.6533203,-0.26831055,-0.6604004,0.7861328,-0.28100586
-0.75146484,0.6328125,-0.28100586,-0.7006836,0.6533203,-0.26831055
-0.7429199,0.65063477,-0.29296875,-0.75146484,0.6328125,-0.28100586
-0.689209,0.69140625,-0.2944336,-0.7429199,0.65063477,-0.29296875
-0.68774414,0.7192383,-0.2775879,-0.689209,0.69140625,-0.2944336
-0.6977539,0.7141113,-0.25683594,-0.689209,0.69140625,-0.2944336
-0.72924805,0.70532227,-0.24511719,-0.6977539,0.7141113,-0.25683594
-0.68530273,0.6862793,-0.19726563,-0.72924805,0.70532227,-0.24511719
-0.66503906,0.68652344,-0.16064453,-0.72924805,0.70532227,-0.24511719
-0.6784668,0.6821289,-0.115234375,-0.66503906,0.68652344,-0.16064453
-0.67211914,0.6875,-0.16772461,-0.6784668,0.6821289,-0.115234375
-0.6513672,0.6923828,-0.20654297,-0.6784668,0.6821289,-0.115234375
-0.6203613,0.6894531,-0.2133789,-0.6513672,0.6923828,-0.20654297
-0.6418457,0.6921387,-0.17504883,-0.6203613,0.6894531,-0.2133789
-0.6242676,0.7019043,-0.1550293,-0.6203613,0.6894531,-0.2133789
-0.564209,0.6376953,-0.033447266,-0.6242676,0.7019043,-0.1550293
-0.6706543,0.61376953,0.036865234,-0.564209,0.6376953,-0.033447266
-0.70581055,0.61376953,0.044189453,-0.564209,0.6376953,-0.033447266
-0.7121582,0.6491699,0.06665039,-0.70581055,0.61376953,0.044189453
-0.7158203,0.6582031,0.11303711,-0.7121582,0.6491699,0.06665039
-0.73461914,0.6723633,0.1586914,-0.7121582,0.6491699,0.06665039
-0.7739258,0.6635742,0.19702148,-0.73461914,0.6723633,0.1586914
-0.80444336,0.5817871,0.15844727,-0.7739258,0.6635742,0.19702148
-0.8093262,0.59155273,0.080322266,-0.7739258,0.6635742,0.19702148
-0.77441406,0.6894531,-0.025634766,-0.8093262,0.59155273,0.080322266
-0.7336426,0.79711914,-0.017333984,-0.77441406,0.6894531,-0.025634766
-0.74316406,0.796875,0.0390625,-0.77441406,0.6894531,-0.025634766
-0.77490234,0.70581055,0.12011719,-0.74316406,0.796875,0.0390625
-0.8034668,0.67529297,0.07421875,-0.77490234,0.70581055,0.12011719
-0.78637695,0.68359375,0.015136719,-0.8034668,0.67529297,0.07421875
-0.7336426,0.7441406,-0.017333984,-0.78637695,0.68359375,0.015136719
-0.7404785,0.7758789,-0.015380859,-0.7336426,0.7441406,-0.017333984
-0.73779297,0.7519531,-0.002929688,-0.7404785,0.7758789,-0.015380859
-0.7319336,0.7277832,0.006591797,-0.73779297,0.7519531,-0.002929688
-0.76000977,0.7397461,0.05029297,-0.7319336,0.7277832,0.006591797
-0.7636719,0.7426758,0.08251953,-0.76000977,0.7397461,0.05029297
-0.75634766,0.71313477,0.12841797,-0.7636719,0.7426758,0.08251953
-0.7558594,0.69506836,0.17480469,-0.75634766,0.71313477,0.12841797
-0.7492676,0.67700195,0.17895508,-0.7558594,0.69506836,0.17480469
-0.732666,0.6677246,0.15551758,-0.7492676,0.67700195,0.17895508
-0.72924805,0.66845703,0.15795898,-0.732666,0.6677246,0.15551758
-0.73168945,0.66552734,0.15966797,-0.72924805,0.66845703,0.15795898
-0.7451172,0.64990234,0.17602539,-0.73168945,0.66552734,0.15966797
-0.75146484,0.6660156,0.17529297,-0.7451172,0.64990234,0.17602539
-0.74560547,0.67529297,0.18115234,-0.75146484,0.6660156,0.17529297
-0.73999023,0.6894531,0.19604492,-0.74560547,0.67529297,0.18115234
-0.75561523,0.6789551,0.17041016,-0.73999023,0.6894531,0.19604492
-0.7609863,0.68066406,0.16601563,-0.75561523,0.6789551,0.17041016
-0.75219727,0.67822266,0.16381836,-0.7609863,0.68066406,0.16601563
-0.7438965,0.6958008,0.19555664,-0.75219727,0.67822266,0.16381836
-0.7468262,0.69506836,0.2043457,-0.7438965,0.6958008,0.19555664
-0.7590332,0.67944336,0.21484375,-0.7468262,0.69506836,0.2043457
-0.7536621,0.6672363,0.19189453,-0.7590332,0.67944336,0.21484375
-0.7475586,0.67333984,0.1928711,-0.7536621,0.6672363,0.19189453
-0.7348633,0.6801758,0.17553711,-0.7475586,0.67333984,0.1928711
-0.7331543,0.6743164,0.1928711,-0.7348633,0.6801758,0.17553711
-0.74243164,0.66625977,0.19238281,-0.7331543,0.6743164,0.1928711
-0.74853516,0.6418457,0.19213867,-0.74243164,0.66625977,0.19238281
-0.7302246,0.65722656,0.17626953,-0.74853516,0.6418457,0.19213867
-0.7199707,0.66674805,0.16601563,-0.7302246,0.65722656,0.17626953
-0.7141113,0.68530273,0.17138672,-0.7199707,0.66674805,0.16601563
-0.7109375,0.67578125,0.15966797,-0.7141113,0.68530273,0.17138672
-0.7155762,0.6838379,0.13647461,-0.7141113,0.68530273,0.17138672
-0.71240234,0.7175293,0.103271484,-0.7155762,0.6838379,0.13647461
-0.69140625,0.6928711,0.10424805,-0.71240234,0.7175293,0.103271484
-0.69433594,0.6682129,0.099609375,-0.71240234,0.7175293,0.103271484
-0.6755371,0.6437988,0.06762695,-0.69433594,0.6682129,0.099609375
-0.6242676,0.6296387,-0.011962891,-0.6755371,0.6437988,0.06762695
-0.5942383,0.6257324,-0.06201172,-0.6755371,0.6437988,0.06762695
-0.5683594,0.642334,-0.01928711,-0.5942383,0.6257324,-0.06201172
-0.56640625,0.63964844,0.07763672,-0.5683594,0.642334,-0.01928711
-0.579834,0.6218262,0.12841797,-0.5683594,0.642334,-0.01928711
-0.5942383,0.5498047,0.2199707,-0.579834,0.6218262,0.12841797
-0.57910156,0.52319336,0.25561523,-0.5942383,0.5498047,0.2199707
-0.5859375,0.5397949,0.28198242,-0.5942383,0.5498047,0.2199707
-0.6376953,0.59643555,0.2475586,-0.5859375,0.5397949,0.28198242
-0.63842773,0.61743164,0.17163086,-0.6376953,0.59643555,0.2475586
-0.6281738,0.5817871,0.12963867,-0.6376953,0.59643555,0.2475586
-0.63427734,0.61694336,0.080078125,-0.6281738,0.5817871,0.12963867
-0.7546387,0.861084,0.16845703,-0.63427734,0.61694336,0.080078125
-0.78393555,0.9577637,0.15600586,-0.63427734,0.61694336,0.080078125
-0.70532227,0.88793945,0.16625977,-0.78393555,0.9577637,0.15600586
-0.6867676,0.7915039,0.171875,-0.70532227,0.88793945,0.16625977
-0.6887207,0.7729492,0.21826172,-0.70532227,0.88793945,0.16625977
-0.63134766,0.75219727,0.28271484,-0.6887207,0.7729492,0.21826172
-0.61083984,0.8327637,0.38720703,-0.63134766,0.75219727,0.28271484
-0.60913086,0.86938477,0.4267578,-0.61083984,0.8327637,0.38720703
-0.5876465,0.8208008,0.3857422,-0.60913086,0.86938477,0.4267578
-0.5654297,0.80078125,0.3713379,-0.5876465,0.8208008,0.3857422
-0.56274414,0.8288574,0.37768555,-0.5654297,0.80078125,0.3713379
-0.58984375,0.8547363,0.4567871,-0.56274414,0.8288574,0.37768555
-0.579834,0.8532715,0.42456055,-0.58984375,0.8547363,0.4567871
-0.545166,0.8342285,0.42382813,-0.579834,0.8532715,0.42456055
-0.5551758,0.83374023,0.41235352,-0.545166,0.8342285,0.42382813
-0.5871582,0.7709961,0.38891602,-0.5551758,0.83374023,0.41235352
-0.5944824,0.81225586,0.4152832,-0.5871582,0.7709961,0.38891602
-0.5969238,0.97436523,0.42016602,-0.5944824,0.81225586,0.4152832
-0.5432129,0.96313477,0.36547852,-0.5969238,0.97436523,0.42016602
-0.53344727,0.93066406,0.34301758,-0.5432129,0.96313477,0.36547852
-0.56640625,0.9265137,0.3256836,-0.53344727,0.93066406,0.34301758
-0.5666504,0.88964844,0.25390625,-0.56640625,0.9265137,0.3256836
-0.5698242,0.8371582,0.20898438,-0.5666504,0.88964844,0.25390625
-0.5048828,0.861084,0.12719727,-0.5698242,0.8371582,0.20898438
-0.45703125,0.8864746,0.1508789,-0.5048828,0.861084,0.12719727
-0.47631836,0.8881836,0.1640625,-0.45703125,0.8864746,0.1508789
-0.4711914,0.8691406,0.17285156,-0.47631836,0.8881836,0.1640625
-0.46264648,0.86450195,0.14697266,-0.4711914,0.8691406,0.17285156
-0.45410156,0.8342285,0.14501953,-0.46264648,0.86450195,0.14697266
-0.46044922,0.8244629,0.14477539,-0.45410156,0.8342285,0.14501953
-0.44555664,0.81347656,0.13842773,-0.46044922,0.8244629,0.14477539
-0.43847656,0.80322266,0.1394043,-0.44555664,0.81347656,0.13842773
-0.45117188,0.79467773,0.13330078,-0.43847656,0.80322266,0.1394043
-0.43310547,0.77124023,0.12475586,-0.45117188,0.79467773,0.13330078
-0.42041016,0.7595215,0.12548828,-0.43310547,0.77124023,0.12475586
-0.39208984,0.7141113,0.10595703,-0.42041016,0.7595215,0.12548828
-0.37646484,0.67700195,0.053222656,-0.39208984,0.7141113,0.10595703
-0.36743164,0.6477051,0.018554688,-0.37646484,0.67700195,0.053222656
-0.34350586,0.5812988,-0.040771484,-0.36743164,0.6477051,0.018554688
-0.31152344,0.5205078,-0.071777344,-0.34350586,0.5812988,-0.040771484
-0.2944336,0.5065918,-0.080566406,-0.34350586,0.5812988,-0.040771484
-0.2446289,0.50683594,-0.06933594,-0.2944336,0.5065918,-0.080566406
-0.19042969,0.5222168,-0.05444336,-0.2446289,0.50683594,-0.06933594
-0.15136719,0.51660156,-0.030761719,-0.2446289,0.50683594,-0.06933594
-0.06274414,0.48535156,-0.019042969,-0.15136719,0.51660156,-0.030761719
0.012695313,0.46728516,-0.001708984,-0.06274414,0.48535156,-0.019042969
0.04663086,0.4794922,-0.001953125,-0.06274414,0.48535156,-0.019042969
0.1616211,0.5214844,-0.03149414,0.04663086,0.4794922,-0.001953125
0.32348633,0.5529785,-0.10986328,0.1616211,0.5214844,-0.03149414
0.41015625,0.55078125,-0.1586914,0.1616211,0.5214844,-0.03149414
0.56762695,0.5019531,-0.2619629,0.41015625,0.55078125,-0.1586914
0.74609375,0.611084,-0.3935547,0.56762695,0.5019531,-0.2619629
0.8388672,0.7553711,-0.44482422,0.56762695,0.5019531,-0.2619629
1.0029297,0.8125,-0.50268555,0.8388672,0.7553711,-0.44482422
1.013916,0.5605469,-0.54345703,1.0029297,0.8125,-0.50268555
1.0749512,0.517334,-0.55078125,1.0029297,0.8125,-0.50268555
1.2231445,0.72680664,-0.5209961,1.0749512,0.517334,-0.55078125
1.2788086,0.7373047,-0.4765625,1.2231445,0.72680664,-0.5209961
1.2744141,0.63427734,-0.45874023,1.2231445,0.72680664,-0.5209961
1.3022461,0.4650879,-0.4362793,1.2744141,0.63427734,-0.45874023
1.4155273,0.41210938,-0.45751953,1.3022461,0.4650879,-0.4362793
1.4804688,0.40722656,-0.46850586,1.4155273,0.41210938,-0.45751953
1.559082,0.38354492,-0.49389648,1.4804688,0.40722656,-0.46850586
1.4934082,0.46533203,-0.52783203,1.559082,0.38354492,-0.49389648
1.4460449,0.4868164,-0.5476074,1.4934082,0.46533203,-0.52783203
1.3654785,0.4284668,-0.46801758,1.4460449,0.4868164,-0.5476074
1.2666016,0.20117188,-0.38330078,1.3654785,0.4284668,-0.46801758
1.190918,0.26708984,-0.28955078,1.2666016,0.20117188,-0.38330078
1.1640625,0.4440918,-0.21191406,1.190918,0.26708984,-0.28955078
1.0688477,0.40771484,-0.19140625,1.1640625,0.4440918,-0.21191406
1.059082,0.36645508,-0.18017578,1.0688477,0.40771484,-0.19140625
1.020752,0.39038086,-0.16455078,1.059082,0.36645508,-0.18017578
1.032959,0.39672852,-0.099365234,1.020752,0.39038086,-0.16455078
1.0136719,0.35913086,-0.083740234,1.032959,0.39672852,-0.099365234
0.9897461,0.35302734,-0.06933594,1.0136719,0.35913086,-0.083740234
0.9519043,0.3984375,-0.05493164,0.9897461,0.35302734,-0.06933594
0.9448242,0.3959961,-0.037597656,0.9519043,0.3984375,-0.05493164
0.96972656,0.39453125,-0.003417969,0.9448242,0.3959961,-0.037597656
0.97143555,0.3564453,0.03540039,0.96972656,0.39453125,-0.003417969
0.9506836,0.33813477,0.053466797,0.97143555,0.3564453,0.03540039
0.91845703,0.33496094,0.055419922,0.9506836,0.33813477,0.053466797
0.9291992,0.34326172,0.06738281,0.91845703,0.33496094,0.055419922
0.9458008,0.33935547,0.076171875,0.9291992,0.34326172,0.06738281
0.9760742,0.31713867,0.07495117,0.9458008,0.33935547,0.076171875
0.9746094,0.29736328,0.064453125,0.9760742,0.31713867,0.07495117
0.9782715,0.28955078,0.038330078,0.9746094,0.29736328,0.064453125
0.97753906,0.28027344,-0.002197266,0.9782715,0.28955078,0.038330078
0.96191406,0.26660156,-0.014892578,0.97753906,0.28027344,-0.002197266
0.9538574,0.26586914,-0.020751953,0.96191406,0.26660156,-0.014892578
0.95654297,0.27246094,-0.028564453,0.9538574,0.26586914,-0.020751953
0.96240234,0.2626953,-0.030029297,0.95654297,0.27246094,-0.028564453
0.96850586,0.25463867,-0.03881836,0.96240234,0.2626953,-0.030029297
0.97265625,0.25390625,-0.060791016,0.96850586,0.25463867,-0.03881836
0.9658203,0.24975586,-0.08862305,0.97265625,0.25390625,-0.060791016
0.953125,0.23608398,-0.10083008,0.97265625,0.25390625,-0.060791016
0.923584,0.2541504,-0.10839844,0.953125,0.23608398,-0.10083008
0.91308594,0.19335938,-0.13745117,0.923584,0.2541504,-0.10839844
0.9296875,0.14038086,-0.14746094,0.923584,0.2541504,-0.10839844
0.94970703,0.09057617,-0.16186523,0.9296875,0.14038086,-0.14746094
0.97143555,0.07128906,-0.18237305,0.94970703,0.09057617,-0.16186523
0.9831543,0.041992188,-0.16699219,0.94970703,0.09057617,-0.16186523
0.99243164,0.05078125,-0.14624023,0.9831543,0.041992188,-0.16699219
0.9953613,0.18408203,-0.13012695,0.99243164,0.05078125,-0.14624023
0.97753906,0.2788086,-0.10205078,0.99243164,0.05078125,-0.14624023
0.9604492,0.3474121,-0.056396484,0.97753906,0.2788086,-0.10205078
0.92871094,0.33447266,-0.05102539,0.9604492,0.3474121,-0.056396484
0.94628906,0.3017578,-0.057128906,0.9604492,0.3474121,-0.056396484
0.9892578,0.20898438,-0.0625,0.94628906,0.3017578,-0.057128906
0.9682617,0.15112305,-0.05834961,0.9892578,0.20898438,-0.0625
0.9428711,0.15356445,-0.047851563,0.9892578,0.20898438,-0.0625
0.9367676,0.1875,-0.026123047,0.9428711,0.15356445,-0.047851563
0.9194336,0.19873047,-0.01977539,0.9367676,0.1875,-0.026123047
0.9165039,0.19726563,-0.029785156,0.9367676,0.1875,-0.026123047
0.9128418,0.20874023,-0.04711914,0.9165039,0.19726563,-0.029785156
0.89208984,0.24633789,-0.053222656,0.9128418,0.20874023,-0.04711914
0.91381836,0.28930664,-0.06713867,0.9128418,0.20874023,-0.04711914
0.97314453,0.37280273,-0.09692383,0.91381836,0.28930664,-0.06713867
0.95825195,0.34936523,-0.08251953,0.97314453,0.37280273,-0.09692383
0.95532227,0.32543945,-0.08105469,0.95825195,0.34936523,-0.08251953
0.9345703,0.28735352,-0.11303711,0.95532227,0.32543945,-0.08105469
0.9265137,0.26098633,-0.15722656,0.9345703,0.28735352,-0.11303711
0.951416,0.296875,-0.17114258,0.9265137,0.26098633,-0.15722656
0.9929199,0.35424805,-0.2199707,0.951416,0.296875,-0.17114258
0.9484863,0.40698242,-0.23657227,0.9929199,0.35424805,-0.2199707
0.939209,0.40429688,-0.19873047,0.9484863,0.40698242,-0.23657227
0.954834,0.40478516,-0.23022461,0.939209,0.40429688,-0.19873047
0.97216797,0.43408203,-0.31811523,0.954834,0.40478516,-0.23022461
0.9892578,0.43847656,-0.3569336,0.97216797,0.43408203,-0.31811523
0.9897461,0.48510742,-0.41259766,0.9892578,0.43847656,-0.3569336
0.9633789,0.52612305,-0.41479492,0.9897461,0.48510742,-0.41259766
0.9562988,0.4975586,-0.4189453,0.9633789,0.52612305,-0.41479492
0.9433594,0.5136719,-0.46899414,0.9562988,0.4975586,-0.4189453
0.9411621,0.59033203,-0.47460938,0.9433594,0.5136719,-0.46899414
0.95288086,0.63378906,-0.49243164,0.9411621,0.59033203,-0.47460938
0.97216797,0.66503906,-0.48950195,0.95288086,0.63378906,-0.49243164
0.94140625,0.61450195,-0.4658203,0.97216797,0.66503906,-0.48950195
0.92163086,0.6323242,-0.44213867,0.94140625,0.61450195,-0.4658203
0.8823242,0.60913086,-0.40063477,0.92163086,0.6323242,-0.44213867
0.890625,0.6489258,-0.46801758,0.8823242,0.60913086,-0.40063477
0.8869629,0.7338867,-0.48339844,0.890625,0.6489258,-0.46801758
0.88842773,0.8034668,-0.46069336,0.8869629,0.7338867,-0.48339844
0.9160156,0.75927734,-0.46411133,0.88842773,0.8034668,-0.46069336
0.9350586,0.7788086,-0.45141602,0.9160156,0.75927734,-0.46411133
0.9267578,0.8149414,-0.46850586,0.9350586,0.7788086,-0.45141602
0.8955078,0.76904297,-0.5283203,0.9267578,0.8149414,-0.46850586
0.8635254,0.8010254,-0.57006836,0.8955078,0.76904297,-0.5283203
0.78637695,0.8498535,-0.6298828,0.8635254,0.8010254,-0.57006836
0.7602539,0.921875,-0.67822266,0.78637695,0.8498535,-0.6298828
0.7727051,0.9580078,-0.6928711,0.7602539,0.921875,-0.67822266
0.8054199,1.0202637,-0.6484375,0.7727051,0.9580078,-0.6928711
0.7692871,1.0683594,-0.5378418,0.8054199,1.0202637,-0.6484375
0.7368164,1.1174316,-0.5366211,0.8054199,1.0202637,-0.6484375
0.7050781,1.1467285,-0.63500977,0.7368164,1.1174316,-0.5366211
0.6994629,1.1120605,-0.73217773,0.7050781,1.1467285,-0.63500977
0.6953125,1.1682129,-0.67285156,0.7050781,1.1467285,-0.63500977
0.67626953,1.2641602,-0.55444336,0.6953125,1.1682129,-0.67285156
0.6813965,1.2407227,-0.55737305,0.67626953,1.2641602,-0.55444336
0.66845703,1.2141113,-0.62353516,0.67626953,1.2641602,-0.55444336
0.6298828,1.2355957,-0.58691406,0.66845703,1.2141113,-0.62353516
0.5498047,1.2351074,-0.49414063,0.6298828,1.2355957,-0.58691406
0.5163574,1.2165527,-0.4958496,0.6298828,1.2355957,-0.58691406
0.5202637,1.0310059,-0.529541,0.5163574,1.2165527,-0.4958496
0.5336914,1.0429688,-0.52905273,0.5202637,1.0310059,-0.529541
0.49145508,1.0974121,-0.44628906,0.5202637,1.0310059,-0.529541
0.37548828,1.0083008,-0.38867188,0.49145508,1.0974121,-0.44628906
0.34472656,0.8232422,-0.52783203,0.37548828,1.0083008,-0.38867188
0.3010254,0.8305664,-0.5605469,0.37548828,1.0083008,-0.38867188
0.26000977,0.8261719,-0.46704102,0.3010254,0.8305664,-0.5605469
0.25854492,0.85302734,-0.41430664,0.26000977,0.8261719,-0.46704102
0.13500977,0.76953125,-0.4111328,0.26000977,0.8261719,-0.46704102
0.042236328,0.65600586,-0.49975586,0.13500977,0.76953125,-0.4111328
0.15405273,0.6308594,-0.4453125,0.042236328,0.65600586,-0.49975586
0.12158203,0.6281738,-0.3984375,0.042236328,0.65600586,-0.49975586
-0.013916016,0.46948242,-0.38916016,0.12158203,0.6281738,-0.3984375
-0.44189453,0.25219727,-0.64038086,-0.013916016,0.46948242,-0.38916016
-0.31567383,0.36279297,-0.4423828,-0.44189453,0.25219727,-0.64038086
-0.12426758,0.46142578,-0.49560547,-0.31567383,0.36279297,-0.4423828
0.20776367,0.19433594,-0.50756836,-0.12426758,0.46142578,-0.49560547
0.024902344,0.1875,-0.453125,0.20776367,0.19433594,-0.50756836
-0.18115234,0.061279297,-0.28222656,0.024902344,0.1875,-0.453125
-0.2211914,-0.12670898,-0.27001953,-0.18115234,0.061279297,-0.28222656
-0.25610352,-0.21850586,-0.3112793,-0.2211914,-0.12670898,-0.27001953
-0.1965332,-0.4104004,-0.3486328,-0.25610352,-0.21850586,-0.3112793
-0.15771484,-0.41723633,-0.28125,-0.1965332,-0.4104004,-0.3486328
-0.16357422,-0.41235352,-0.20214844,-0.15771484,-0.41723633,-0.28125
-0.18115234,-0.42285156,-0.07861328,-0.16357422,-0.41235352,-0.20214844
-0.16210938,-0.67700195,-0.029785156,-0.18115234,-0.42285156,-0.07861328
-0.14819336,-0.7314453,-0.011962891,-0.16210938,-0.67700195,-0.029785156
-0.12060547,-0.76660156,-0.025878906,-0.14819336,-0.7314453,-0.011962891
-0.12939453,-0.88134766,0.060791016,-0.12060547,-0.76660156,-0.025878906
-0.118896484,-1.0637207,0.083740234,-0.12939453,-0.88134766,0.060791016
-0.072265625,-1.2617188,0.028320313,-0.118896484,-1.0637207,0.083740234
-0.006103516,-1.1965332,0.009521484,-0.072265625,-1.2617188,0.028320313
0.014404297,-1.1635742,0.01977539,-0.006103516,-1.1965332,0.009521484
0.026855469,-1.0756836,0.056640625,0.014404297,-1.1635742,0.01977539
-0.012451172,-1.1472168,0.11816406,0.026855469,-1.0756836,0.056640625
-0.049804688,-1.2451172,0.099365234,-0.012451172,-1.1472168,0.11816406
-0.041748047,-1.3000488,-0.045410156,-0.049804688,-1.2451172,0.099365234
0.039794922,-1.2192383,-0.10424805,-0.041748047,-1.3000488,-0.045410156
0.03125,-1.2495117,-0.08154297,0.039794922,-1.2192383,-0.10424805
-0.075927734,-1.3012695,0.005615234,0.03125,-1.2495117,-0.08154297
-0.13720703,-1.3330078,-0.029785156,-0.075927734,-1.3012695,0.005615234
-0.12670898,-1.338623,-0.06982422,-0.13720703,-1.3330078,-0.029785156
-0.07128906,-1.3164063,-0.08496094,-0.12670898,-1.338623,-0.06982422
-0.07910156,-1.2626953,0.03857422,-0.07128906,-1.3164063,-0.08496094
-0.095214844,-1.2709961,0.06738281,-0.07910156,-1.2626953,0.03857422
-0.08154297,-1.197998,0.018310547,-0.095214844,-1.2709961,0.06738281
-0.08129883,-1.2199707,-0.011962891,-0.08154297,-1.197998,0.018310547
-0.095703125,-1.2490234,-0.037353516,-0.08154297,-1.197998,0.018310547
-0.11987305,-1.2104492,-0.059326172,-0.095703125,-1.2490234,-0.037353516
-0.12036133,-1.1887207,-0.06591797,-0.11987305,-1.2104492,-0.059326172
-0.13598633,-1.1728516,-0.07836914,-0.11987305,-1.2104492,-0.059326172
-0.17163086,-1.1425781,-0.083740234,-0.13598633,-1.1728516,-0.07836914
-0.20678711,-1.0778809,-0.056640625,-0.17163086,-1.1425781,-0.083740234
-0.22216797,-1.0368652,-0.059814453,-0.17163086,-1.1425781,-0.083740234
-0.2614746,-0.9111328,-0.107177734,-0.22216797,-1.0368652,-0.059814453
-0.31762695,-0.78149414,-0.111816406,-0.2614746,-0.9111328,-0.107177734
-0.36572266,-0.7314453,-0.11035156,-0.2614746,-0.9111328,-0.107177734
-0.43554688,-0.67163086,-0.068847656,-0.36572266,-0.7314453,-0.11035156
-0.45703125,-0.6140137,-0.06616211,-0.43554688,-0.67163086,-0.068847656
-0.4736328,-0.5673828,-0.053710938,-0.43554688,-0.67163086,-0.068847656
-0.52905273,-0.56152344,-0.14282227,-0.4736328,-0.5673828,-0.053710938
-0.5786133,-0.5019531,-0.22265625,-0.52905273,-0.56152344,-0.14282227
-0.59033203,-0.4711914,-0.22729492,-0.52905273,-0.56152344,-0.14282227
-0.62841797,-0.35351563,-0.20483398,-0.59033203,-0.4711914,-0.22729492
-0.64941406,-0.21411133,-0.23339844,-0.62841797,-0.35351563,-0.20483398
-0.65112305,-0.1472168,-0.25976563,-0.62841797,-0.35351563,-0.20483398
-0.6867676,-0.07714844,-0.31274414,-0.65112305,-0.1472168,-0.25976563
-0.7163086,-0.012695313,-0.31176758,-0.6867676,-0.07714844,-0.31274414
-0.73461914,0.030029297,-0.31518555,-0.6867676,-0.07714844,-0.31274414
-0.736084,0.1340332,-0.3227539,-0.73461914,0.030029297,-0.31518555
-0.7597656,0.26660156,-0.29785156,-0.736084,0.1340332,-0.3227539
-0.7922363,0.2734375,-0.2854004,-0.7597656,0.26660156,-0.29785156
-0.77124023,0.29370117,-0.29003906,-0.7922363,0.2734375,-0.2854004
-0.7373047,0.36376953,-0.2692871,-0.77124023,0.29370117,-0.29003906
-0.76660156,0.39379883,-0.23828125,-0.7373047,0.36376953,-0.2692871
-0.7961426,0.4440918,-0.19091797,-0.76660156,0.39379883,-0.23828125
-0.7458496,0.61987305,-0.15454102,-0.7961426,0.4440918,-0.19091797
-0.6899414,0.66967773,-0.14819336,-0.7458496,0.61987305,-0.15454102
-0.6948242,0.6508789,-0.14233398,-0.6899414,0.66967773,-0.14819336
-0.66748047,0.67163086,-0.13720703,-0.6948242,0.6508789,-0.14233398
-0.64819336,0.6569824,-0.10229492,-0.66748047,0.67163086,-0.13720703
-0.60913086,0.86816406,-0.051513672,-0.64819336,0.6569824,-0.10229492
-0.57666016,1.3896484,-0.011962891,-0.60913086,0.86816406,-0.051513672
-0.611084,1.5192871,0.033447266,-0.57666016,1.3896484,-0.011962891
-0.6557617,1.4887695,0.10107422,-0.611084,1.5192871,0.033447266
-0.62719727,1.079834,0.13964844,-0.6557617,1.4887695,0.10107422
-0.65185547,1.0183105,0.15893555,-0.62719727,1.079834,0.13964844
-0.64038086,1.0700684,0.2109375,-0.65185547,1.0183105,0.15893555
-0.66918945,1.347168,0.31762695,-0.64038086,1.0700684,0.2109375
-0.65405273,1.479248,0.34448242,-0.66918945,1.347168,0.31762695
-0.63916016,1.534668,0.3215332,-0.65405273,1.479248,0.34448242
-0.6369629,1.4399414,0.3059082,-0.63916016,1.534668,0.3215332
-0.63061523,1.3654785,0.31030273,-0.6369629,1.4399414,0.3059082
-0.6357422,1.1787109,0.35083008,-0.63061523,1.3654785,0.31030273
-0.638916,1.0410156,0.35302734,-0.6357422,1.1787109,0.35083008
-0.6484375,1.0773926,0.33398438,-0.638916,1.0410156,0.35302734
-0.5917969,1.1057129,0.25219727,-0.6484375,1.0773926,0.33398438
-0.5773926,1.0979004,0.17675781,-0.5917969,1.1057129,0.25219727
-0.60058594,1.0847168,0.18334961,-0.5773926,1.0979004,0.17675781
-0.6040039,1.0661621,0.13378906,-0.60058594,1.0847168,0.18334961
-0.5756836,1.0012207,0.08081055,-0.6040039,1.0661621,0.13378906
-0.57666016,0.9157715,0.033203125,-0.5756836,1.0012207,0.08081055
-0.5559082,0.7783203,-0.076171875,-0.57666016,0.9157715,0.033203125
-0.5559082,0.6557617,-0.13354492,-0.5559082,0.7783203,-0.076171875
-0.564209,0.5761719,-0.15332031,-0.5559082,0.7783203,-0.076171875
-0.61865234,0.3996582,-0.24584961,-0.564209,0.5761719,-0.15332031
-0.59594727,0.28979492,-0.32641602,-0.61865234,0.3996582,-0.24584961
-0.57250977,0.22802734,-0.34423828,-0.61865234,0.3996582,-0.24584961
-0.5168457,0.018066406,-0.35180664,-0.57250977,0.22802734,-0.34423828
-0.51416016,-0.15405273,-0.34521484,-0.5168457,0.018066406,-0.35180664
-0.4880371,-0.20605469,-0.31591797,-0.5168457,0.018066406,-0.35180664
-0.47827148,-0.32299805,-0.2800293,-0.4880371,-0.20605469,-0.31591797
-0.40014648,-0.4555664,-0.22192383,-0.47827148,-0.32299805,-0.2800293
-0.3930664,-0.53344727,-0.18164063,-0.47827148,-0.32299805,-0.2800293
-0.44018555,-0.73095703,-0.13671875,-0.3930664,-0.53344727,-0.18164063
-0.4658203,-0.8496094,-0.17333984,-0.44018555,-0.73095703,-0.13671875
-0.4519043,-0.9638672,-0.21435547,-0.44018555,-0.73095703,-0.13671875
-0.3720703,-0.95214844,-0.09716797,-0.4519043,-0.9638672,-0.21435547
-0.21142578,-1.0651855,0.17211914,-0.3720703,-0.95214844,-0.09716797
-0.1640625,-1.1679688,0.17675781,-0.3720703,-0.95214844,-0.09716797
-0.14160156,-1.1843262,0.23266602,-0.1640625,-1.1679688,0.17675781
-0.20263672,-1.1591797,0.06982422,-0.14160156,-1.1843262,0.23266602
-0.15014648,-1.1381836,-0.045898438,-0.14160156,-1.1843262,0.23266602
0.06347656,-1.060791,-0.052978516,-0.15014648,-1.1381836,-0.045898438
-0.0715332,-1.2575684,0.022705078,0.06347656,-1.060791,-0.052978516
-0.23364258,-1.4580078,0.014160156,-0.0715332,-1.2575684,0.022705078
-0.37036133,-1.3771973,-0.047851563,-0.23364258,-1.4580078,0.014160156
-0.24633789,-1.380127,-0.076660156,-0.37036133,-1.3771973,-0.047851563
-0.23999023,-1.3190918,-0.09082031,-0.24633789,-1.380127,-0.076660156
-0.2607422,-1.369873,-0.09716797,-0.23999023,-1.3190918,-0.09082031
-0.26660156,-1.6118164,-0.18920898,-0.2607422,-1.369873,-0.09716797
-0.24560547,-1.6713867,-0.26464844,-0.26660156,-1.6118164,-0.18920898
-0.18969727,-1.6606445,-0.3635254,-0.24560547,-1.6713867,-0.26464844
-0.16210938,-1.6296387,-0.3708496,-0.18969727,-1.6606445,-0.3635254
-0.15942383,-1.6247559,-0.3569336,-0.16210938,-1.6296387,-0.3708496
-0.12402344,-1.4287109,-0.25610352,-0.15942383,-1.6247559,-0.3569336
-0.09106445,-1.3449707,-0.1875,-0.12402344,-1.4287109,-0.25610352
-0.11694336,-1.3374023,-0.18847656,-0.09106445,-1.3449707,-0.1875
-0.18115234,-1.295166,-0.21118164,-0.11694336,-1.3374023,-0.18847656
-0.17675781,-1.1435547,-0.20483398,-0.18115234,-1.295166,-0.21118164
-0.17456055,-1.0593262,-0.2355957,-0.17675781,-1.1435547,-0.20483398
-0.11645508,-0.8408203,-0.23510742,-0.17456055,-1.0593262,-0.2355957
-0.12719727,-0.74975586,-0.20117188,-0.11645508,-0.8408203,-0.23510742
-0.14672852,-0.6760254,-0.1862793,-0.12719727,-0.74975586,-0.20117188
-0.16870117,-0.47216797,-0.22070313,-0.14672852,-0.6760254,-0.1862793
-0.17944336,-0.24243164,-0.19238281,-0.16870117,-0.47216797,-0.22070313
-0.22167969,-0.17211914,-0.16967773,-0.17944336,-0.24243164,-0.19238281
-0.3203125,-0.18261719,-0.15454102,-0.22167969,-0.17211914,-0.16967773
-0.31323242,-0.13867188,-0.18725586,-0.3203125,-0.18261719,-0.15454102
-0.27319336,-0.046875,-0.1899414,-0.31323242,-0.13867188,-0.18725586
-0.24438477,0.20654297,-0.11743164,-0.27319336,-0.046875,-0.1899414
-0.3125,0.29248047,-0.107666016,-0.24438477,0.20654297,-0.11743164
-0.30566406,0.28466797,-0.1340332,-0.3125,0.29248047,-0.107666016
-0.23999023,0.23828125,-0.16845703,-0.30566406,0.28466797,-0.1340332
-0.13769531,0.4555664,-0.22973633,-0.23999023,0.23828125,-0.16845703
-0.07470703,0.6320801,-0.21533203,-0.13769531,0.4555664,-0.22973633
-0.07104492,1.0852051,-0.11254883,-0.07470703,0.6320801,-0.21533203
-0.2097168,1.6108398,0.07006836,-0.07104492,1.0852051,-0.11254883
-0.28393555,1.6726074,0.1262207,-0.2097168,1.6108398,0.07006836
-0.2824707,1.1696777,0.099365234,-0.28393555,1.6726074,0.1262207
-0.28125,1.0649414,0.119384766,-0.2824707,1.1696777,0.099365234
-0.26098633,1.0776367,0.14770508,-0.2824707,1.1696777,0.099365234
-0.18017578,1.121582,0.21264648,-0.26098633,1.0776367,0.14770508
-0.31762695,1.7666016,0.26879883,-0.18017578,1.121582,0.21264648
-0.38867188,2.095459,0.37304688,-0.18017578,1.121582,0.21264648
-0.42211914,2.147705,0.39526367,-0.38867188,2.095459,0.37304688
-0.40161133,1.84375,0.23364258,-0.42211914,2.147705,0.39526367
-0.46875,2.0585938,0.32958984,-0.42211914,2.147705,0.39526367
-0.53344727,2.3205566,0.5317383,-0.46875,2.0585938,0.32958984
-0.3857422,2.2814941,0.52685547,-0.53344727,2.3205566,0.5317383
-0.33447266,2.157959,0.46704102,-0.53344727,2.3205566,0.5317383
-0.3894043,1.9367676,0.3791504,-0.33447266,2.157959,0.46704102
-0.39746094,1.9091797,0.44091797,-0.3894043,1.9367676,0.3791504
-0.36938477,1.9943848,0.4440918,-0.3894043,1.9367676,0.3791504
-0.29101563,2.03125,0.37426758,-0.36938477,1.9943848,0.4440918
-0.23852539,1.7758789,0.29882813,-0.29101563,2.03125,0.37426758
-0.23876953,1.6784668,0.27685547,-0.29101563,2.03125,0.37426758
-0.16503906,1.5510254,0.15454102,-0.23876953,1.6784668,0.27685547
-0.09301758,1.4487305,0.056640625,-0.16503906,1.5510254,0.15454102
-0.11987305,1.3947754,0.048583984,-0.16503906,1.5510254,0.15454102
-0.09399414,1.1577148,0.006591797,-0.11987305,1.3947754,0.048583984
-0.05029297,1.0178223,-0.1430664,-0.09399414,1.1577148,0.006591797
-0.022949219,0.9567871,-0.1899414,-0.05029297,1.0178223,-0.1430664
-0.016357422,0.7331543,-0.20776367,-0.022949219,0.9567871,-0.1899414
-0.03173828,0.4423828,-0.21459961,-0.016357422,0.7331543,-0.20776367
-0.03173828,0.3569336,-0.26635742,-0.03173828,0.4423828,-0.21459961
0.01953125,0.2475586,-0.33251953,-0.03173828,0.3569336,-0.26635742
0.063964844,-0.020263672,-0.30737305,0.01953125,0.2475586,-0.33251953
0.036865234,-0.19726563,-0.26391602,0.063964844,-0.020263672,-0.30737305
-0.0769043,-0.46777344,-0.15942383,0.036865234,-0.19726563,-0.26391602
-0.08178711,-0.4033203,-0.19604492,-0.0769043,-0.46777344,-0.15942383
-0.049072266,-0.42260742,-0.19995117,-0.08178711,-0.4033203,-0.19604492
-0.016845703,-0.8195801,-0.08911133,-0.049072266,-0.42260742,-0.19995117
0.016601563,-0.9152832,-0.061279297,-0.016845703,-0.8195801,-0.08911133
0.013183594,-0.8105469,-0.044921875,0.016601563,-0.9152832,-0.061279297
-0.09667969,-0.89331055,0.31420898,0.013183594,-0.8105469,-0.044921875
-0.111328125,-1.5939941,0.2644043,-0.09667969,-0.89331055,0.31420898
-0.18066406,-1.6132813,0.2163086,-0.111328125,-1.5939941,0.2644043
-0.08251953,-1.3535156,0.1665039,-0.18066406,-1.6132813,0.2163086
0.1003418,-1.2177734,0.20776367,-0.08251953,-1.3535156,0.1665039
0.107421875,-1.3166504,0.36328125,0.1003418,-1.2177734,0.20776367
-0.15551758,-1.9052734,0.39453125,0.107421875,-1.3166504,0.36328125
-0.29956055,-1.734375,0.28588867,-0.15551758,-1.9052734,0.39453125
-0.16381836,-1.5900879,0.2553711,-0.29956055,-1.734375,0.28588867
0.022216797,-1.489502,0.32788086,-0.16381836,-1.5900879,0.2553711
-0.12084961,-1.6503906,0.42163086,0.022216797,-1.489502,0.32788086
-0.19848633,-1.6577148,0.42529297,-0.12084961,-1.6503906,0.42163086
-0.12817383,-1.6506348,0.41235352,-0.19848633,-1.6577148,0.42529297
0.004150391,-1.5466309,0.34960938,-0.12817383,-1.6506348,0.41235352
0.003173828,-1.4943848,0.3112793,0.004150391,-1.5466309,0.34960938
-0.06616211,-1.4716797,0.31420898,0.003173828,-1.4943848,0.3112793
-0.095947266,-1.3664551,0.31225586,-0.06616211,-1.4716797,0.31420898
-0.10083008,-1.329834,0.25927734,-0.095947266,-1.3664551,0.31225586
-0.07104492,-1.2182617,0.16699219,-0.10083008,-1.329834,0.25927734
-0.071777344,-1.0908203,0.13916016,-0.07104492,-1.2182617,0.16699219
-0.10522461,-1.032959,0.14746094,-0.07104492,-1.2182617,0.16699219
-0.10058594,-0.9394531,0.10424805,-0.10522461,-1.032959,0.14746094
-0.01171875,-0.7219238,0.0715332,-0.10058594,-0.9394531,0.10424805
0.005615234,-0.58569336,0.068115234,-0.10058594,-0.9394531,0.10424805
-0.055419922,-0.43359375,0.06738281,0.005615234,-0.58569336,0.068115234
-0.106933594,-0.41430664,0.041259766,-0.055419922,-0.43359375,0.06738281
-0.08666992,-0.4111328,0.041748047,-0.055419922,-0.43359375,0.06738281
-0.033691406,-0.32958984,0.026855469,-0.08666992,-0.4111328,0.041748047
-0.037109375,-0.2697754,-0.08544922,-0.033691406,-0.32958984,0.026855469
-0.045898438,-0.24780273,-0.1418457,-0.033691406,-0.32958984,0.026855469
-0.05859375,-0.08154297,-0.20410156,-0.045898438,-0.24780273,-0.1418457
-0.036376953,0.26293945,-0.19604492,-0.05859375,-0.08154297,-0.20410156
-0.025878906,0.47802734,-0.16845703,-0.05859375,-0.08154297,-0.20410156
-0.15258789,0.66552734,-0.2878418,-0.025878906,0.47802734,-0.16845703
-0.10864258,0.71533203,-0.36132813,-0.15258789,0.66552734,-0.2878418
-0.014404297,0.8244629,-0.31445313,-0.15258789,0.66552734,-0.2878418
0.08300781,1.0490723,-0.21044922,-0.014404297,0.8244629,-0.31445313
0.038085938,1.1044922,-0.2524414,0.08300781,1.0490723,-0.21044922
0.080566406,1.1794434,-0.22485352,0.08300781,1.0490723,-0.21044922
0.13500977,1.4882813,-0.08178711,0.080566406,1.1794434,-0.22485352
0.119140625,1.5766602,-0.107910156,0.13500977,1.4882813,-0.08178711
0.1772461,1.4733887,-0.12036133,0.13500977,1.4882813,-0.08178711
0.19140625,1.5039063,-0.12719727,0.1772461,1.4733887,-0.12036133
-0.013916016,1.8894043,-0.08178711,0.19140625,1.5039063,-0.12719727
-0.076171875,2.1347656,-0.06323242,-0.013916016,1.8894043,-0.08178711
0.005371094,2.102539,-0.13891602,-0.076171875,2.1347656,-0.06323242
0.057861328,1.7521973,-0.23339844,0.005371094,2.102539,-0.13891602
-0.011474609,1.864502,-0.22680664,0.057861328,1.7521973,-0.23339844
-0.20361328,2.1252441,-0.19677734,-0.011474609,1.864502,-0.22680664
-0.19555664,1.9804688,-0.44384766,-0.20361328,2.1252441,-0.19677734
-0.08911133,1.8828125,-0.47998047,-0.19555664,1.9804688,-0.44384766
-0.0390625,1.9987793,-0.46948242,-0.08911133,1.8828125,-0.47998047
-0.12963867,2.2646484,-0.47753906,-0.0390625,1.9987793,-0.46948242
-0.110839844,2.2719727,-0.49682617,-0.12963867,2.2646484,-0.47753906
-0.017578125,2.1003418,-0.5227051,-0.110839844,2.2719727,-0.49682617
0.009765625,2.0185547,-0.5161133,-0.017578125,2.1003418,-0.5227051
-0.001708984,2.0063477,-0.53271484,0.009765625,2.0185547,-0.5161133
-0.012939453,1.9282227,-0.5246582,-0.001708984,2.0063477,-0.53271484
0.060546875,1.8474121,-0.39501953,-0.012939453,1.9282227,-0.5246582
0.08496094,1.7854004,-0.3642578,0.060546875,1.8474121,-0.39501953
0.06518555,1.7058105,-0.37670898,0.08496094,1.7854004,-0.3642578
0.111572266,1.5068359,-0.39916992,0.06518555,1.7058105,-0.37670898
0.14477539,1.4165039,-0.4182129,0.111572266,1.5068359,-0.39916992
0.20117188,1.229248,-0.38720703,0.14477539,1.4165039,-0.4182129
0.1694336,1.2192383,-0.33422852,0.20117188,1.229248,-0.38720703
0.16357422,1.1437988,-0.29345703,0.1694336,1.2192383,-0.33422852
0.1184082,0.98095703,-0.30566406,0.16357422,1.1437988,-0.29345703
0.1484375,0.98657227,-0.43530273,0.1184082,0.98095703,-0.30566406
0.16357422,0.9404297,-0.47143555,0.1484375,0.98657227,-0.43530273
0.16821289,0.79907227,-0.46679688,0.16357422,0.9404297,-0.47143555
0.22094727,0.5605469,-0.4736328,0.16821289,0.79907227,-0.46679688
0.2512207,0.44360352,-0.47998047,0.22094727,0.5605469,-0.4736328
0.24536133,0.20117188,-0.45751953,0.2512207,0.44360352,-0.47998047
0.09301758,-0.08520508,-0.40698242,0.24536133,0.20117188,-0.45751953
-0.002197266,-0.13134766,-0.3864746,0.09301758,-0.08520508,-0.40698242
-0.07910156,-0.25439453,-0.44262695,-0.002197266,-0.13134766,-0.3864746
-0.0703125,-0.29467773,-0.36987305,-0.07910156,-0.25439453,-0.44262695
-0.11206055,-0.4099121,-0.25048828,-0.07910156,-0.25439453,-0.44262695
-0.28076172,-0.7631836,-0.16552734,-0.11206055,-0.4099121,-0.25048828
-0.35595703,-0.7019043,-0.20458984,-0.28076172,-0.7631836,-0.16552734
-0.3215332,-0.6130371,-0.16821289,-0.28076172,-0.7631836,-0.16552734
-0.23339844,-0.73657227,-0.016113281,-0.3215332,-0.6130371,-0.16821289
-0.22021484,-1.036377,-0.021728516,-0.23339844,-0.73657227,-0.016113281
-0.19360352,-1.0939941,-0.07495117,-0.23339844,-0.73657227,-0.016113281
-0.13891602,-1.0214844,-0.013671875,-0.19360352,-1.0939941,-0.07495117
-0.13256836,-0.95166016,0.036865234,-0.13891602,-1.0214844,-0.013671875
-0.10644531,-0.951416,0.07324219,-0.13891602,-1.0214844,-0.013671875
-0.05834961,-0.9953613,0.13208008,-0.10644531,-0.951416,0.07324219
-0.012207031,-1.3500977,-0.020019531,-0.05834961,-0.9953613,0.13208008
0.008789063,-1.565918,-0.025146484,-0.05834961,-0.9953613,0.13208008
-0.018066406,-1.8295898,0.13964844,0.008789063,-1.565918,-0.025146484
-0.13891602,-1.7819824,0.20922852,-0.018066406,-1.8295898,0.13964844
-0.15063477,-1.6818848,0.19482422,-0.018066406,-1.8295898,0.13964844
-0.044677734,-1.5332031,0.14428711,-0.15063477,-1.6818848,0.19482422
-0.04296875,-1.6333008,0.099609375,-0.044677734,-1.5332031,0.14428711
-0.052490234,-1.6691895,0.10473633,-0.044677734,-1.5332031,0.14428711
-0.07397461,-1.6303711,0.056396484,-0.052490234,-1.6691895,0.10473633
-0.05883789,-1.6306152,0.022460938,-0.07397461,-1.6303711,0.056396484
-0.04663086,-1.5976563,0.003662109,-0.07397461,-1.6303711,0.056396484
-0.060791016,-1.4233398,-0.01977539,-0.04663086,-1.5976563,0.003662109
-0.08984375,-1.2651367,-0.002685547,-0.060791016,-1.4233398,-0.01977539
-0.11206055,-1.2072754,-2.44E-04,-0.08984375,-1.2651367,-0.002685547
-0.13623047,-1.1801758,-0.096191406,-0.11206055,-1.2072754,-2.44E-04
-0.099365234,-1.2119141,-0.15576172,-0.13623047,-1.1801758,-0.096191406
-0.09326172,-1.1308594,-0.1628418,-0.099365234,-1.2119141,-0.15576172
-0.078125,-0.9711914,-0.19506836,-0.09326172,-1.1308594,-0.1628418
-0.032714844,-0.81884766,-0.23461914,-0.078125,-0.9711914,-0.19506836
-0.00390625,-0.78759766,-0.26391602,-0.032714844,-0.81884766,-0.23461914
0.087402344,-0.7355957,-0.2836914,-0.00390625,-0.78759766,-0.26391602
0.15234375,-0.6755371,-0.2265625,0.087402344,-0.7355957,-0.2836914
0.19458008,-0.5852051,-0.1977539,0.15234375,-0.6755371,-0.2265625
0.33007813,-0.27124023,-0.16210938,0.19458008,-0.5852051,-0.1977539
0.43554688,-0.03515625,-0.13500977,0.33007813,-0.27124023,-0.16210938
0.4555664,0.028076172,-0.13769531,0.43554688,-0.03515625,-0.13500977
0.46264648,0.088134766,-0.07763672,0.4555664,0.028076172,-0.13769531
0.5227051,0.20410156,-0.1262207,0.46264648,0.088134766,-0.07763672
0.5900879,0.30249023,-0.14355469,0.5227051,0.20410156,-0.1262207
0.74316406,0.49609375,-0.1796875,0.5900879,0.30249023,-0.14355469
0.9855957,0.67041016,-0.24365234,0.74316406,0.49609375,-0.1796875
1.0671387,0.68310547,-0.20239258,0.9855957,0.67041016,-0.24365234
1.1403809,0.55981445,-0.23535156,1.0671387,0.68310547,-0.20239258
1.2297363,0.76293945,-0.203125,1.1403809,0.55981445,-0.23535156
1.2578125,0.9777832,-0.09472656,1.2297363,0.76293945,-0.203125
1.2956543,1.1435547,0.015136719,1.2578125,0.9777832,-0.09472656
1.4204102,0.87402344,-0.14892578,1.2956543,1.1435547,0.015136719
1.5224609,0.86987305,-0.31323242,1.4204102,0.87402344,-0.14892578
1.482666,1.1887207,-0.2055664,1.5224609,0.86987305,-0.31323242
1.517334,1.4135742,0.001220703,1.482666,1.1887207,-0.2055664
1.6340332,1.3476563,-0.29101563,1.517334,1.4135742,0.001220703
1.7316895,1.1672363,-0.46020508,1.6340332,1.3476563,-0.29101563
1.7358398,1.3735352,-0.34155273,1.7316895,1.1672363,-0.46020508
1.6958008,1.4655762,-0.20703125,1.7358398,1.3735352,-0.34155273
1.6574707,1.5495605,-0.31298828,1.6958008,1.4655762,-0.20703125
1.7285156,1.5476074,-0.45483398,1.6574707,1.5495605,-0.31298828
1.6235352,1.4970703,-0.43481445,1.6574707,1.5495605,-0.31298828
1.6904297,1.3242188,-0.3244629,1.6235352,1.4970703,-0.43481445
1.7661133,1.2460938,-0.7102051,1.6904297,1.3242188,-0.3244629
1.682373,1.2595215,-0.77197266,1.6904297,1.3242188,-0.3244629
1.4958496,1.4057617,-0.89208984,1.682373,1.2595215,-0.77197266
1.4697266,1.487793,-0.9433594,1.4958496,1.4057617,-0.89208984
1.4650879,1.451416,-0.9304199,1.4958496,1.4057617,-0.89208984
1.4106445,1.4172363,-0.8227539,1.4650879,1.451416,-0.9304199
1.3898926,1.3681641,-0.82592773,1.4106445,1.4172363,-0.8227539
1.3847656,1.2624512,-0.8613281,1.4106445,1.4172363,-0.8227539
1.3190918,0.86865234,-0.87231445,1.3847656,1.2624512,-0.8613281
1.2092285,0.58935547,-1.0009766,1.3190918,0.86865234,-0.87231445
1.1896973,0.55566406,-1.0449219,1.3190918,0.86865234,-0.87231445
1.1843262,0.46875,-1.1040039,1.1896973,0.55566406,-1.0449219
1.2524414,0.43188477,-0.97021484,1.1843262,0.46875,-1.1040039
1.2683105,0.42285156,-0.8508301,1.1843262,0.46875,-1.1040039
1.2231445,0.43115234,-0.45458984,1.2683105,0.42285156,-0.8508301
1.1784668,0.41235352,-0.13745117,1.2231445,0.43115234,-0.45458984
1.1477051,0.3918457,-0.05834961,1.2231445,0.43115234,-0.45458984
1.1843262,0.38671875,0.020996094,1.1477051,0.3918457,-0.05834961
1.1342773,0.28735352,-0.014648438,1.1843262,0.38671875,0.020996094
1.0827637,0.25561523,-0.02734375,1.1843262,0.38671875,0.020996094
1.0585938,0.27441406,-0.010253906,1.0827637,0.25561523,-0.02734375
0.9992676,0.30249023,0.014160156,1.0585938,0.27441406,-0.010253906
0.95654297,0.3046875,0.025634766,0.9992676,0.30249023,0.014160156
0.8757324,0.27807617,0.008056641,0.95654297,0.3046875,0.025634766
0.8100586,0.2421875,-0.025878906,0.8757324,0.27807617,0.008056641
0.7949219,0.2290039,-0.029296875,0.8100586,0.2421875,-0.025878906
0.77075195,0.21875,-0.011474609,0.7949219,0.2290039,-0.029296875
0.75,0.18066406,-4.88E-04,0.77075195,0.21875,-0.011474609
0.74780273,0.1538086,-0.04321289,0.75,0.18066406,-4.88E-04
0.7468262,0.12524414,-0.09277344,0.74780273,0.1538086,-0.04321289
0.7849121,0.19018555,-0.012939453,0.7468262,0.12524414,-0.09277344
0.8083496,0.22070313,0.005859375,0.7849121,0.19018555,-0.012939453
0.8239746,0.20410156,-0.059570313,0.8083496,0.22070313,0.005859375
0.83569336,0.13696289,-0.24926758,0.8239746,0.20410156,-0.059570313
0.84375,0.12988281,-0.22949219,0.83569336,0.13696289,-0.24926758
0.8535156,0.21899414,-0.13623047,0.84375,0.12988281,-0.22949219
0.8408203,0.2265625,-0.15234375,0.8535156,0.21899414,-0.13623047
0.8449707,0.20947266,-0.1928711,0.8408203,0.2265625,-0.15234375
0.9199219,0.20727539,-0.25073242,0.8449707,0.20947266,-0.1928711
0.9975586,0.20532227,-0.28295898,0.9199219,0.20727539,-0.25073242
1.0041504,0.2163086,-0.29541016,0.9975586,0.20532227,-0.28295898
1.0102539,0.2475586,-0.30493164,1.0041504,0.2163086,-0.29541016
1.0258789,0.25585938,-0.29882813,1.0102539,0.2475586,-0.30493164
1.0336914,0.28076172,-0.2734375,1.0258789,0.25585938,-0.29882813
1.0522461,0.3449707,-0.24121094,1.0336914,0.28076172,-0.2734375
1.0571289,0.37524414,-0.24804688,1.0522461,0.3449707,-0.24121094
1.0612793,0.37182617,-0.2529297,1.0571289,0.37524414,-0.24804688
1.0668945,0.36132813,-0.25341797,1.0612793,0.37182617,-0.2529297
1.0427246,0.33691406,-0.22290039,1.0668945,0.36132813,-0.25341797
1.0317383,0.32983398,-0.19458008,1.0427246,0.33691406,-0.22290039
1.0087891,0.32836914,-0.15893555,1.0317383,0.32983398,-0.19458008
1.0031738,0.34570313,-0.16040039,1.0087891,0.32836914,-0.15893555
1.0026855,0.35742188,-0.15893555,1.0031738,0.34570313,-0.16040039
0.9946289,0.3708496,-0.18310547,1.0026855,0.35742188,-0.15893555
0.9934082,0.38452148,-0.14868164,0.9946289,0.3708496,-0.18310547
0.9941406,0.39648438,-0.13549805,0.9946289,0.3708496,-0.18310547
0.9777832,0.40307617,-0.12182617,0.9941406,0.39648438,-0.13549805
0.9523926,0.3713379,-0.13989258,0.9777832,0.40307617,-0.12182617
0.9445801,0.35351563,-0.15698242,0.9777832,0.40307617,-0.12182617
0.9560547,0.35375977,-0.15063477,0.9445801,0.35351563,-0.15698242
0.96606445,0.3864746,-0.14111328,0.9560547,0.35375977,-0.15063477
0.9650879,0.38989258,-0.13989258,0.9560547,0.35375977,-0.15063477
0.95996094,0.38085938,-0.13452148,0.9650879,0.38989258,-0.13989258
0.9423828,0.36401367,-0.119628906,0.95996094,0.38085938,-0.13452148
0.94091797,0.35058594,-0.107421875,0.95996094,0.38085938,-0.13452148
0.9370117,0.32495117,-0.076171875,0.94091797,0.35058594,-0.107421875
0.9250488,0.30273438,-0.064697266,0.9370117,0.32495117,-0.076171875
0.92089844,0.29125977,-0.06201172,0.9370117,0.32495117,-0.076171875
0.91796875,0.30126953,-0.061767578,0.92089844,0.29125977,-0.06201172
0.9255371,0.31347656,-0.061767578,0.91796875,0.30126953,-0.061767578
0.93066406,0.3161621,-0.06225586,0.91796875,0.30126953,-0.061767578
0.94799805,0.32836914,-0.07006836,0.93066406,0.3161621,-0.06225586
0.9682617,0.32421875,-0.072265625,0.94799805,0.32836914,-0.07006836
0.9729004,0.32177734,-0.06542969,0.94799805,0.32836914,-0.07006836
0.96606445,0.3076172,-0.06762695,0.9729004,0.32177734,-0.06542969
0.9667969,0.29125977,-0.068359375,0.96606445,0.3076172,-0.06762695
0.96728516,0.27856445,-0.068359375,0.9667969,0.29125977,-0.068359375
0.9736328,0.2529297,-0.06640625,0.96728516,0.27856445,-0.068359375
0.9741211,0.23510742,-0.06665039,0.9736328,0.2529297,-0.06640625
0.97998047,0.23730469,-0.06323242,0.9741211,0.23510742,-0.06665039
0.99658203,0.24291992,-0.056396484,0.97998047,0.23730469,-0.06323242
1.0007324,0.21459961,-0.048095703,0.99658203,0.24291992,-0.056396484
0.9921875,0.19555664,-0.041992188,1.0007324,0.21459961,-0.048095703
0.9758301,0.14672852,-0.047851563,0.9921875,0.19555664,-0.041992188
0.9921875,0.140625,-0.06762695,0.9758301,0.14672852,-0.047851563
0.9909668,0.19677734,-0.068359375,0.9921875,0.140625,-0.06762695
0.9802246,0.34375,-0.0793457,0.9909668,0.19677734,-0.068359375
0.98168945,0.30981445,-0.052978516,0.9802246,0.34375,-0.0793457
0.9753418,0.2902832,-0.036376953,0.98168945,0.30981445,-0.052978516
0.9406738,0.35668945,0.004882813,0.9753418,0.2902832,-0.036376953
0.92163086,0.34765625,0.024414063,0.9406738,0.35668945,0.004882813
0.9362793,0.32080078,-0.008544922,0.92163086,0.34765625,0.024414063
0.9667969,0.2644043,-0.051757813,0.9362793,0.32080078,-0.008544922
0.93237305,0.25073242,-0.072265625,0.9667969,0.2644043,-0.051757813
0.90356445,0.29467773,-0.07495117,0.93237305,0.25073242,-0.072265625
0.8781738,0.3779297,-0.08325195,0.90356445,0.29467773,-0.07495117
0.8774414,0.38476563,-0.0715332,0.8781738,0.3779297,-0.08325195
0.87719727,0.4008789,-0.059570313,0.8774414,0.38476563,-0.0715332
0.8659668,0.39013672,-0.04736328,0.87719727,0.4008789,-0.059570313
0.8967285,0.3474121,-0.053466797,0.8659668,0.39013672,-0.04736328
0.92871094,0.37451172,-0.06665039,0.8967285,0.3474121,-0.053466797
0.9819336,0.5251465,-0.064208984,0.92871094,0.37451172,-0.06665039
0.94189453,0.5275879,-0.043945313,0.9819336,0.5251465,-0.064208984
0.9042969,0.50683594,-0.03466797,0.94189453,0.5275879,-0.043945313
0.85595703,0.54345703,-0.01928711,0.9042969,0.50683594,-0.03466797
0.83032227,0.5588379,-0.026611328,0.85595703,0.54345703,-0.01928711
0.82177734,0.5546875,-0.034423828,0.83032227,0.5588379,-0.026611328
0.8120117,0.55981445,-0.0546875,0.82177734,0.5546875,-0.034423828
0.7998047,0.546875,-0.06298828,0.8120117,0.55981445,-0.0546875
0.7910156,0.5168457,-0.099609375,0.7998047,0.546875,-0.06298828
0.78515625,0.4873047,-0.103027344,0.7910156,0.5168457,-0.099609375
0.7844238,0.51293945,-0.06738281,0.78515625,0.4873047,-0.103027344
0.7832031,0.5126953,-0.041992188,0.78515625,0.4873047,-0.103027344
0.7949219,0.49267578,0,0.7832031,0.5126953,-0.041992188
0.80249023,0.5131836,0.005859375,0.7949219,0.49267578,0
0.82373047,0.5427246,-0.018310547,0.7949219,0.49267578,0
0.88671875,0.576416,-0.08081055,0.82373047,0.5427246,-0.018310547
0.9238281,0.6057129,-0.13256836,0.88671875,0.576416,-0.08081055
0.9272461,0.6442871,-0.10107422,0.88671875,0.576416,-0.08081055
0.9067383,0.7421875,-0.05493164,0.9272461,0.6442871,-0.10107422
0.8833008,0.8269043,-0.14746094,0.9067383,0.7421875,-0.05493164
0.9013672,0.8713379,-0.24243164,0.9067383,0.7421875,-0.05493164
0.9375,1.0214844,-0.29223633,0.9013672,0.8713379,-0.24243164
1.0068359,1.152832,-0.24047852,0.9375,1.0214844,-0.29223633
1.0078125,1.25,-0.2277832,0.9375,1.0214844,-0.29223633
0.95458984,0.9970703,-0.36010742,1.0078125,1.25,-0.2277832
0.89501953,1.1181641,-0.41137695,0.95458984,0.9970703,-0.36010742
0.8630371,1.3493652,-0.36547852,0.95458984,0.9970703,-0.36010742
0.83496094,1.5463867,-0.23657227,0.8630371,1.3493652,-0.36547852
0.74975586,1.409668,-0.2553711,0.83496094,1.5463867,-0.23657227
0.7092285,1.3271484,-0.36621094,0.83496094,1.5463867,-0.23657227
0.6345215,1.4558105,-0.49365234,0.7092285,1.3271484,-0.36621094
0.64941406,1.5583496,-0.28735352,0.6345215,1.4558105,-0.49365234
0.6411133,1.4248047,-0.24047852,0.64941406,1.5583496,-0.28735352
0.5144043,1.1103516,-0.25341797,0.6411133,1.4248047,-0.24047852
0.42382813,0.8991699,-0.3005371,0.5144043,1.1103516,-0.25341797
0.3935547,0.90600586,-0.27514648,0.42382813,0.8991699,-0.3005371
0.30004883,1.0073242,-0.17749023,0.3935547,0.90600586,-0.27514648
0.20507813,0.87158203,-0.06591797,0.30004883,1.0073242,-0.17749023
0.17236328,0.81591797,-0.043701172,0.20507813,0.87158203,-0.06591797
0.0925293,0.5632324,-0.1081543,0.17236328,0.81591797,-0.043701172
-0.053710938,0.36132813,-0.22851563,0.0925293,0.5632324,-0.1081543
-0.13256836,0.3330078,-0.25854492,-0.053710938,0.36132813,-0.22851563
-0.24682617,0.50634766,-0.20458984,-0.13256836,0.3330078,-0.25854492
-0.29882813,0.54125977,-0.13085938,-0.24682617,0.50634766,-0.20458984
-0.30932617,0.49389648,-0.13256836,-0.29882813,0.54125977,-0.13085938
-0.35595703,0.31298828,-0.21679688,-0.30932617,0.49389648,-0.13256836
-0.43408203,0.24047852,-0.32788086,-0.35595703,0.31298828,-0.21679688
-0.47143555,0.23144531,-0.35107422,-0.43408203,0.24047852,-0.32788086
-0.51049805,0.21313477,-0.34350586,-0.47143555,0.23144531,-0.35107422
-0.52319336,0.23730469,-0.33520508,-0.51049805,0.21313477,-0.34350586
-0.5341797,0.22631836,-0.34594727,-0.52319336,0.23730469,-0.33520508
-0.576416,0.21386719,-0.37182617,-0.5341797,0.22631836,-0.34594727
-0.6635742,0.1640625,-0.38110352,-0.576416,0.21386719,-0.37182617
-0.69262695,0.16577148,-0.3996582,-0.6635742,0.1640625,-0.38110352
-0.70336914,0.1850586,-0.41235352,-0.69262695,0.16577148,-0.3996582
-0.71484375,0.18408203,-0.39624023,-0.70336914,0.1850586,-0.41235352
-0.7319336,0.2006836,-0.3942871,-0.71484375,0.18408203,-0.39624023
-0.76049805,0.17675781,-0.40161133,-0.7319336,0.2006836,-0.3942871
-0.8015137,0.12548828,-0.40527344,-0.76049805,0.17675781,-0.40161133
-0.80493164,0.12084961,-0.41357422,-0.8015137,0.12548828,-0.40527344
-0.8105469,0.10986328,-0.40698242,-0.80493164,0.12084961,-0.41357422
-0.8232422,0.1821289,-0.40014648,-0.8105469,0.10986328,-0.40698242
-0.8227539,0.20043945,-0.40185547,-0.8232422,0.1821289,-0.40014648
-0.8269043,0.18725586,-0.38085938,-0.8227539,0.20043945,-0.40185547
-0.8666992,0.13842773,-0.4020996,-0.8269043,0.18725586,-0.38085938
-0.8520508,0.1003418,-0.42236328,-0.8269043,0.18725586,-0.38085938
-0.8376465,0.07519531,-0.44067383,-0.8520508,0.1003418,-0.42236328
-0.8347168,0.1550293,-0.44213867,-0.8376465,0.07519531,-0.44067383
-0.8442383,0.17773438,-0.4267578,-0.8376465,0.07519531,-0.44067383
-0.9086914,0.16113281,-0.43530273,-0.8442383,0.17773438,-0.4267578
-0.9194336,0.14135742,-0.4716797,-0.9086914,0.16113281,-0.43530273
-0.91430664,0.13232422,-0.48779297,-0.9086914,0.16113281,-0.43530273
-0.9033203,0.13012695,-0.49072266,-0.91430664,0.13232422,-0.48779297
-0.89086914,0.18017578,-0.49926758,-0.9033203,0.13012695,-0.49072266
-0.87939453,0.1965332,-0.48608398,-0.9033203,0.13012695,-0.49072266
-0.90625,0.2241211,-0.4350586,-0.87939453,0.1965332,-0.48608398
-0.9199219,0.18334961,-0.44335938,-0.90625,0.2241211,-0.4350586
-0.8979492,0.1538086,-0.46875,-0.90625,0.2241211,-0.4350586
-0.8557129,0.1706543,-0.49829102,-0.8979492,0.1538086,-0.46875
-0.8383789,0.1706543,-0.48120117,-0.8557129,0.1706543,-0.49829102
-0.8520508,0.1796875,-0.46850586,-0.8557129,0.1706543,-0.49829102
-0.85961914,0.17675781,-0.4296875,-0.8520508,0.1796875,-0.46850586
-0.873291,0.19628906,-0.43554688,-0.85961914,0.17675781,-0.4296875
-0.857666,0.19311523,-0.4494629,-0.85961914,0.17675781,-0.4296875
-0.8400879,0.20092773,-0.47387695,-0.857666,0.19311523,-0.4494629
-0.8486328,0.21020508,-0.4711914,-0.8400879,0.20092773,-0.47387695
-0.84765625,0.21435547,-0.47094727,-0.8400879,0.20092773,-0.47387695
-0.8359375,0.24829102,-0.4638672,-0.84765625,0.21435547,-0.47094727
-0.8339844,0.24633789,-0.4404297,-0.8359375,0.24829102,-0.4638672
-0.82958984,0.23828125,-0.4206543,-0.8339844,0.24633789,-0.4404297
-0.8305664,0.23535156,-0.37402344,-0.82958984,0.23828125,-0.4206543
-0.8210449,0.2133789,-0.3486328,-0.8305664,0.23535156,-0.37402344
-0.8173828,0.20410156,-0.34692383,-0.8210449,0.2133789,-0.3486328
-0.8015137,0.18017578,-0.3503418,-0.8173828,0.20410156,-0.34692383
-0.77197266,0.1538086,-0.35229492,-0.8015137,0.18017578,-0.3503418
-0.7553711,0.14160156,-0.35107422,-0.77197266,0.1538086,-0.35229492
-0.6989746,0.1538086,-0.34985352,-0.7553711,0.14160156,-0.35107422
-0.6616211,0.21142578,-0.32788086,-0.6989746,0.1538086,-0.34985352
-0.6484375,0.22607422,-0.3076172,-0.6616211,0.21142578,-0.32788086
-0.6154785,0.24975586,-0.28857422,-0.6484375,0.22607422,-0.3076172
-0.58984375,0.26733398,-0.4020996,-0.6154785,0.24975586,-0.28857422
-0.5852051,0.30493164,-0.45898438,-0.58984375,0.26733398,-0.4020996
-0.6035156,0.38476563,-0.54052734,-0.5852051,0.30493164,-0.45898438
-0.60839844,0.40478516,-0.5461426,-0.6035156,0.38476563,-0.54052734
-0.60961914,0.3959961,-0.53393555,-0.60839844,0.40478516,-0.5461426
-0.5678711,0.50683594,-0.47802734,-0.60961914,0.3959961,-0.53393555
-0.50146484,0.55444336,-0.47216797,-0.5678711,0.50683594,-0.47802734
-0.4777832,0.60009766,-0.48779297,-0.50146484,0.55444336,-0.47216797
-0.4284668,0.61206055,-0.6052246,-0.4777832,0.60009766,-0.48779297
-0.3840332,0.61621094,-0.736084,-0.4284668,0.61206055,-0.6052246
-0.3803711,0.5793457,-0.7573242,-0.3840332,0.61621094,-0.736084
-0.41137695,0.609375,-0.7609863,-0.3803711,0.5793457,-0.7573242
-0.39648438,0.7023926,-0.7578125,-0.41137695,0.609375,-0.7609863
-0.36987305,0.71972656,-0.78125,-0.39648438,0.7023926,-0.7578125
-0.3203125,0.70874023,-0.9394531,-0.36987305,0.71972656,-0.78125
-0.2849121,0.69311523,-1.0131836,-0.3203125,0.70874023,-0.9394531
-0.28637695,0.6816406,-1.0073242,-0.2849121,0.69311523,-1.0131836
-0.3034668,0.6933594,-0.98779297,-0.28637695,0.6816406,-1.0073242
-0.29125977,0.70336914,-0.9638672,-0.3034668,0.6933594,-0.98779297
-0.27807617,0.71435547,-0.9628906,-0.29125977,0.70336914,-0.9638672
-0.24389648,0.75024414,-0.9729004,-0.27807617,0.71435547,-0.9628906
-0.2163086,0.70947266,-0.9458008,-0.24389648,0.75024414,-0.9729004
-0.20458984,0.6713867,-0.9260254,-0.24389648,0.75024414,-0.9729004
-0.20263672,0.65283203,-0.9082031,-0.20458984,0.6713867,-0.9260254
-0.18969727,0.6418457,-0.9238281,-0.20263672,0.65283203,-0.9082031
-0.17749023,0.6286621,-0.9165039,-0.20263672,0.65283203,-0.9082031
-0.17993164,0.61816406,-0.8808594,-0.17749023,0.6286621,-0.9165039
-0.19604492,0.62939453,-0.8256836,-0.17993164,0.61816406,-0.8808594
-0.19921875,0.6323242,-0.8112793,-0.17993164,0.61816406,-0.8808594
-0.18823242,0.6513672,-0.83081055,-0.19921875,0.6323242,-0.8112793
-0.16333008,0.6489258,-0.8864746,-0.18823242,0.6513672,-0.83081055
-0.1574707,0.654541,-0.88964844,-0.18823242,0.6513672,-0.83081055
-0.16967773,0.64746094,-0.85058594,-0.1574707,0.654541,-0.88964844
-0.17651367,0.6550293,-0.796875,-0.16967773,0.64746094,-0.85058594
-0.17456055,0.6594238,-0.7824707,-0.16967773,0.64746094,-0.85058594
-0.15429688,0.6262207,-0.78125,-0.17456055,0.6594238,-0.7824707
-0.1315918,0.6582031,-0.8244629,-0.15429688,0.6262207,-0.78125
-0.119384766,0.6503906,-0.8400879,-0.15429688,0.6262207,-0.78125
-0.10913086,0.6291504,-0.82299805,-0.119384766,0.6503906,-0.8400879
-0.115234375,0.6335449,-0.7766113,-0.10913086,0.6291504,-0.82299805
-0.11767578,0.6381836,-0.75561523,-0.10913086,0.6291504,-0.82299805
-0.118896484,0.6179199,-0.7546387,-0.11767578,0.6381836,-0.75561523
-0.10644531,0.59936523,-0.77124023,-0.118896484,0.6179199,-0.7546387
-0.1015625,0.59716797,-0.78027344,-0.118896484,0.6179199,-0.7546387
-0.10229492,0.607666,-0.7758789,-0.1015625,0.59716797,-0.78027344
-0.11425781,0.6333008,-0.74072266,-0.10229492,0.607666,-0.7758789
-0.12866211,0.64331055,-0.7277832,-0.11425781,0.6333008,-0.74072266
-0.13964844,0.6220703,-0.72558594,-0.12866211,0.64331055,-0.7277832
-0.15014648,0.6340332,-0.7385254,-0.13964844,0.6220703,-0.72558594
-0.15136719,0.64624023,-0.7368164,-0.15014648,0.6340332,-0.7385254
-0.15649414,0.65893555,-0.717041,-0.15136719,0.64624023,-0.7368164
-0.18725586,0.65625,-0.6765137,-0.15649414,0.65893555,-0.717041
-0.2043457,0.65844727,-0.66186523,-0.18725586,0.65625,-0.6765137
-0.2211914,0.6550293,-0.6743164,-0.2043457,0.65844727,-0.66186523
-0.23120117,0.6611328,-0.67822266,-0.2211914,0.6550293,-0.6743164
-0.23876953,0.6826172,-0.6765137,-0.23120117,0.6611328,-0.67822266
-0.2487793,0.70410156,-0.6591797,-0.23876953,0.6826172,-0.6765137
-0.24902344,0.69018555,-0.6430664,-0.2487793,0.70410156,-0.6591797
-0.24902344,0.6948242,-0.64086914,-0.24902344,0.69018555,-0.6430664
-0.24291992,0.7258301,-0.6550293,-0.24902344,0.6948242,-0.64086914
-0.22924805,0.720459,-0.6699219,-0.24291992,0.7258301,-0.6550293
-0.2331543,0.720459,-0.66552734,-0.22924805,0.720459,-0.6699219
-0.2446289,0.7338867,-0.6635742,-0.2331543,0.720459,-0.66552734
-0.24023438,0.75561523,-0.67333984,-0.2446289,0.7338867,-0.6635742
-0.23608398,0.77563477,-0.6640625,-0.24023438,0.75561523,-0.67333984
-0.24658203,0.7507324,-0.6804199,-0.23608398,0.77563477,-0.6640625
-0.2602539,0.72875977,-0.73168945,-0.24658203,0.7507324,-0.6804199
-0.26220703,0.7080078,-0.7475586,-0.2602539,0.72875977,-0.73168945
-0.26757813,0.70092773,-0.76586914,-0.26220703,0.7080078,-0.7475586
-0.28149414,0.6850586,-0.7897949,-0.26757813,0.70092773,-0.76586914
-0.29882813,0.63549805,-0.8120117,-0.28149414,0.6850586,-0.7897949
-0.35742188,0.517334,-0.95825195,-0.29882813,0.63549805,-0.8120117
-0.39648438,0.49047852,-1.2631836,-0.35742188,0.517334,-0.95825195
-0.39672852,0.576416,-1.3525391,-0.39648438,0.49047852,-1.2631836
-0.375,0.70751953,-1.3417969,-0.39672852,0.576416,-1.3525391
-0.45751953,0.60253906,-1.3044434,-0.375,0.70751953,-1.3417969
-0.52563477,0.6147461,-1.3432617,-0.45751953,0.60253906,-1.3044434
-0.55688477,0.73046875,-1.4882813,-0.52563477,0.6147461,-1.3432617
-0.54663086,0.50439453,-1.3828125,-0.55688477,0.73046875,-1.4882813
-0.61376953,0.6098633,-1.2724609,-0.55688477,0.73046875,-1.4882813
-0.64868164,0.60180664,-1.1276855,-0.61376953,0.6098633,-1.2724609
-0.5913086,0.73461914,-0.8869629,-0.64868164,0.60180664,-1.1276855
-0.5744629,0.74975586,-0.7668457,-0.64868164,0.60180664,-1.1276855
-0.5612793,0.7248535,-0.592041,-0.5744629,0.74975586,-0.7668457
-0.5834961,0.4255371,-0.43896484,-0.5612793,0.7248535,-0.592041
-0.64404297,0.31176758,-0.4038086,-0.5612793,0.7248535,-0.592041
-0.6652832,0.1628418,-0.24023438,-0.64404297,0.31176758,-0.4038086
-0.7265625,0.35546875,-0.051757813,-0.6652832,0.1628418,-0.24023438
-0.7167969,0.40234375,0.010009766,-0.6652832,0.1628418,-0.24023438
-0.67211914,0.3955078,0.040527344,-0.7167969,0.40234375,0.010009766
-0.67333984,0.27124023,0.10668945,-0.67211914,0.3955078,0.040527344
-0.7192383,0.22021484,0.12011719,-0.67211914,0.3955078,0.040527344
-0.7116699,0.12646484,0.087646484,-0.7192383,0.22021484,0.12011719
-0.70532227,0.026855469,-0.055908203,-0.7116699,0.12646484,0.087646484
-0.6928711,-0.029296875,-0.103759766,-0.7116699,0.12646484,0.087646484
-0.72216797,-0.06323242,-0.08154297,-0.6928711,-0.029296875,-0.103759766
-0.7937012,0.0078125,-0.13720703,-0.72216797,-0.06323242,-0.08154297
-0.763916,-0.005371094,-0.18017578,-0.72216797,-0.06323242,-0.08154297
-0.8125,-0.05419922,-0.24682617,-0.763916,-0.005371094,-0.18017578
-0.88842773,-0.18945313,-0.3408203,-0.8125,-0.05419922,-0.24682617
-0.89624023,-0.26708984,-0.3918457,-0.8125,-0.05419922,-0.24682617
-0.8925781,-0.19335938,-0.3479004,-0.89624023,-0.26708984,-0.3918457
-0.92456055,-0.05859375,-0.24780273,-0.8925781,-0.19335938,-0.3479004
-0.9355469,-0.114990234,-0.26538086,-0.92456055,-0.05859375,-0.24780273
-0.8898926,-0.30249023,-0.37036133,-0.9355469,-0.114990234,-0.26538086
-0.9375,-0.37963867,-0.34277344,-0.8898926,-0.30249023,-0.37036133
-0.95288086,-0.3479004,-0.26538086,-0.9375,-0.37963867,-0.34277344
-0.9680176,-0.16333008,-0.16137695,-0.95288086,-0.3479004,-0.26538086
-0.90771484,-0.084228516,-0.087402344,-0.9680176,-0.16333008,-0.16137695
-0.9160156,-0.09399414,-0.064453125,-0.90771484,-0.084228516,-0.087402344
-0.954834,-0.18481445,-0.06201172,-0.9160156,-0.09399414,-0.064453125
-0.953125,-0.1652832,-0.013671875,-0.954834,-0.18481445,-0.06201172
-0.9394531,-0.08300781,0.007080078,-0.953125,-0.1652832,-0.013671875
-0.9338379,0.001708984,0.1381836,-0.9394531,-0.08300781,0.007080078
-0.9013672,-0.02758789,0.123535156,-0.9338379,0.001708984,0.1381836
-0.9621582,9.77E-04,0.123046875,-0.9013672,-0.02758789,0.123535156
-0.93774414,-0.017822266,0.045166016,-0.9621582,9.77E-04,0.123046875
-0.9211426,-0.07495117,-0.028076172,-0.93774414,-0.017822266,0.045166016
-0.94311523,-0.13061523,-0.016357422,-0.9211426,-0.07495117,-0.028076172
-0.9658203,-0.061035156,-0.11254883,-0.94311523,-0.13061523,-0.016357422
-1.0720215,0.06689453,-0.09472656,-0.9658203,-0.061035156,-0.11254883
-1.0305176,0.087402344,-0.123046875,-1.0720215,0.06689453,-0.09472656
-1.0710449,-0.01953125,-0.091308594,-1.0305176,0.087402344,-0.123046875
-0.9807129,-0.056884766,-0.16259766,-1.0710449,-0.01953125,-0.091308594
-0.9555664,-0.099853516,-0.20043945,-0.9807129,-0.056884766,-0.16259766
-0.9633789,0.02734375,-0.18164063,-0.9555664,-0.099853516,-0.20043945
-0.9699707,0.14990234,-0.012695313,-0.9633789,0.02734375,-0.18164063
-0.9680176,0.3330078,0.10083008,-0.9699707,0.14990234,-0.012695313
-0.9946289,0.6015625,0.2939453,-0.9680176,0.3330078,0.10083008
-0.95458984,0.29370117,0.2602539,-0.9946289,0.6015625,0.2939453
-0.9614258,0.12841797,0.19262695,-0.95458984,0.29370117,0.2602539
-0.87841797,-0.072753906,0.05883789,-0.9614258,0.12841797,0.19262695
-0.94091797,0.09350586,0.07348633,-0.87841797,-0.072753906,0.05883789
-0.92871094,0.19897461,0.08911133,-0.94091797,0.09350586,0.07348633
-0.97509766,0.29418945,0.036376953,-0.92871094,0.19897461,0.08911133
-0.98217773,0.12548828,-0.0949707,-0.97509766,0.29418945,0.036376953
-0.97802734,0.008789063,-0.1977539,-0.97509766,0.29418945,0.036376953
-0.9797363,-0.09301758,-0.3154297,-0.97802734,0.008789063,-0.1977539
-1.0061035,0.11279297,-0.3215332,-0.9797363,-0.09301758,-0.3154297
-0.9958496,0.19311523,-0.32128906,-0.9797363,-0.09301758,-0.3154297
-0.99487305,0.11743164,-0.39453125,-0.9958496,0.19311523,-0.32128906
-0.967041,-0.003662109,-0.49829102,-0.99487305,0.11743164,-0.39453125
-0.9333496,0.004882813,-0.51708984,-0.99487305,0.11743164,-0.39453125
-0.90185547,0.049560547,-0.55493164,-0.9333496,0.004882813,-0.51708984
-0.96362305,0.076171875,-0.5227051,-0.90185547,0.049560547,-0.55493164
-0.95532227,0.06958008,-0.54907227,-0.90185547,0.049560547,-0.55493164
-0.9394531,0.060791016,-0.5690918,-0.95532227,0.06958008,-0.54907227
-0.9301758,0.06274414,-0.5563965,-0.9394531,0.060791016,-0.5690918
-0.95043945,0.020996094,-0.5432129,-0.9394531,0.060791016,-0.5690918
-0.94970703,0.005615234,-0.5168457,-0.95043945,0.020996094,-0.5432129
-0.9589844,-0.06762695,-0.5246582,-0.94970703,0.005615234,-0.5168457
-0.9328613,-0.007080078,-0.49609375,-0.94970703,0.005615234,-0.5168457
-0.9211426,0.12109375,-0.4309082,-0.9328613,-0.007080078,-0.49609375
-0.94433594,0.15795898,-0.35107422,-0.9211426,0.12109375,-0.4309082
-0.9448242,0.18261719,-0.3149414,-0.9211426,0.12109375,-0.4309082
-0.9812012,0.15649414,-0.31420898,-0.9448242,0.18261719,-0.3149414
-0.9489746,-0.011230469,-0.32055664,-0.9812012,0.15649414,-0.31420898
-0.95410156,0.03149414,-0.2607422,-0.9812012,0.15649414,-0.31420898
-0.9797363,0.13061523,-0.12817383,-0.95410156,0.03149414,-0.2607422
-0.95703125,0.21899414,2.44E-04,-0.9797363,0.13061523,-0.12817383
-0.9875488,0.31591797,0.02709961,-0.95703125,0.21899414,2.44E-04
-0.94628906,0.079833984,0.014892578,-0.9875488,0.31591797,0.02709961
-0.9560547,0.03930664,0.115234375,-0.94628906,0.079833984,0.014892578
-0.9711914,0.2084961,0.18823242,-0.9560547,0.03930664,0.115234375
-0.9875488,0.5361328,0.30200195,-0.9711914,0.2084961,0.18823242
-0.9885254,0.42578125,0.21777344,-0.9875488,0.5361328,0.30200195
-0.9421387,0.17480469,0.09423828,-0.9885254,0.42578125,0.21777344
-0.91064453,-0.22167969,0.087402344,-0.9421387,0.17480469,0.09423828
-0.951416,-0.15917969,0.15209961,-0.91064453,-0.22167969,0.087402344
-0.94091797,-0.1640625,0.17919922,-0.951416,-0.15917969,0.15209961
-0.9350586,-0.2084961,0.17553711,-0.94091797,-0.1640625,0.17919922
-0.9885254,-0.23510742,0.09790039,-0.9350586,-0.2084961,0.17553711
-1.0134277,-0.34057617,0.099853516,-0.9885254,-0.23510742,0.09790039
-0.9951172,-0.4567871,0.06274414,-1.0134277,-0.34057617,0.099853516
-1.0407715,-0.19946289,0.1628418,-0.9951172,-0.4567871,0.06274414
-1.0634766,-0.06225586,0.20678711,-1.0407715,-0.19946289,0.1628418
-1.0603027,-0.013671875,0.16601563,-1.0634766,-0.06225586,0.20678711
-1.048584,-0.17211914,0.040283203,-1.0603027,-0.013671875,0.16601563
-1.0737305,-0.22973633,0.011474609,-1.048584,-0.17211914,0.040283203
-1.0739746,-0.16552734,0.024902344,-1.0737305,-0.22973633,0.011474609
-1.0527344,-0.028320313,0.07885742,-1.0739746,-0.16552734,0.024902344
-1.027832,-0.026123047,0.08178711,-1.0527344,-0.028320313,0.07885742
-1.0437012,-0.07055664,0.0715332,-1.027832,-0.026123047,0.08178711
-1.0112305,-0.13720703,0.024658203,-1.0437012,-0.07055664,0.0715332
-1.0214844,-0.16015625,0.0390625,-1.0112305,-0.13720703,0.024658203
-1.0803223,-0.19921875,0.079589844,-1.0214844,-0.16015625,0.0390625
-1.0192871,-0.2800293,0.049804688,-1.0803223,-0.19921875,0.079589844
-1.0021973,-0.3894043,0.01586914,-1.0192871,-0.2800293,0.049804688
-1.0219727,-0.6948242,-0.10449219,-1.0021973,-0.3894043,0.01586914
-1.048584,-0.9831543,-0.33422852,-1.0219727,-0.6948242,-0.10449219
-1.0024414,-1.0466309,-0.43652344,-1.048584,-0.9831543,-0.33422852
-0.9445801,-0.33422852,-0.56933594,-1.0024414,-1.0466309,-0.43652344
-0.87280273,0.59814453,-0.28076172,-0.9445801,-0.33422852,-0.56933594
-0.8679199,1.013916,-0.01928711,-0.9445801,-0.33422852,-0.56933594
-0.9616699,1.4169922,0.50024414,-0.8679199,1.013916,-0.01928711
-1.0874023,0.66845703,0.36083984,-0.9616699,1.4169922,0.50024414
-1.0905762,0.31640625,0.19091797,-0.9616699,1.4169922,0.50024414
-1.0395508,-0.05810547,-0.038085938,-1.0905762,0.31640625,0.19091797
-0.98999023,0.002441406,-0.057861328,-1.0395508,-0.05810547,-0.038085938
-0.9719238,0.13989258,-0.03564453,-1.0395508,-0.05810547,-0.038085938
-0.9577637,0.3095703,-0.020996094,-0.9719238,0.13989258,-0.03564453
-0.98461914,0.3947754,0.014648438,-0.9577637,0.3095703,-0.020996094
-0.9692383,0.44189453,0.057128906,-0.9577637,0.3095703,-0.020996094
-0.9499512,0.4111328,0.009521484,-0.9692383,0.44189453,0.057128906
-0.91308594,0.13427734,-0.15551758,-0.9499512,0.4111328,0.009521484
-0.9108887,0.036865234,-0.21264648,-0.9499512,0.4111328,0.009521484
-0.8466797,0.14379883,-0.2241211,-0.9108887,0.036865234,-0.21264648
-0.8173828,0.2121582,-0.29663086,-0.8466797,0.14379883,-0.2241211
-0.8522949,0.2668457,-0.3005371,-0.8466797,0.14379883,-0.2241211
-0.8208008,0.31274414,-0.38427734,-0.8522949,0.2668457,-0.3005371
-0.8305664,0.17480469,-0.44604492,-0.8208008,0.31274414,-0.38427734
-0.8149414,0.008300781,-0.5258789,-0.8208008,0.31274414,-0.38427734
-0.80615234,-0.23486328,-0.69189453,-0.8149414,0.008300781,-0.5258789
-0.75683594,-0.038085938,-0.75097656,-0.80615234,-0.23486328,-0.69189453
-0.73413086,0.015380859,-0.77368164,-0.75683594,-0.038085938,-0.75097656
-0.7246094,0.076416016,-0.82006836,-0.73413086,0.015380859,-0.77368164
-0.70092773,-0.032470703,-0.9328613,-0.7246094,0.076416016,-0.82006836
-0.6940918,-0.14038086,-0.9848633,-0.70092773,-0.032470703,-0.9328613
-0.7036133,-0.18701172,-1.0002441,-0.6940918,-0.14038086,-0.9848633
-0.66748047,-0.1652832,-1.0427246,-0.7036133,-0.18701172,-1.0002441
-0.65063477,-0.12866211,-1.0615234,-0.66748047,-0.1652832,-1.0427246
-0.68481445,-0.03149414,-0.99658203,-0.65063477,-0.12866211,-1.0615234
-0.7236328,-0.07470703,-0.97314453,-0.68481445,-0.03149414,-0.99658203
-0.7595215,-0.08569336,-0.9440918,-0.7236328,-0.07470703,-0.97314453
-0.77368164,-0.10180664,-0.923584,-0.7595215,-0.08569336,-0.9440918
-0.7922363,-0.037353516,-0.82592773,-0.77368164,-0.10180664,-0.923584
-0.7956543,0.06347656,-0.75683594,-0.7922363,-0.037353516,-0.82592773
-0.8203125,0.15698242,-0.59472656,-0.7956543,0.06347656,-0.75683594
-0.8457031,0.13916016,-0.4921875,-0.8203125,0.15698242,-0.59472656
-0.84277344,0.08105469,-0.45947266,-0.8457031,0.13916016,-0.4921875
-0.8498535,0.13647461,-0.31835938,-0.84277344,0.08105469,-0.45947266
-0.8327637,0.25683594,-0.18896484,-0.8498535,0.13647461,-0.31835938
-0.8378906,0.31274414,-0.11376953,-0.8327637,0.25683594,-0.18896484
-0.8713379,0.37524414,0.002441406,-0.8378906,0.31274414,-0.11376953
-0.9133301,0.39331055,0.10205078,-0.8713379,0.37524414,0.002441406
-0.9091797,0.3466797,0.107910156,-0.9133301,0.39331055,0.10205078
-0.9243164,0.22192383,0.10180664,-0.9091797,0.3466797,0.107910156
-0.9663086,0.3701172,0.19995117,-0.9243164,0.22192383,0.10180664
-0.9567871,0.43188477,0.20678711,-0.9663086,0.3701172,0.19995117
-0.9909668,0.5527344,0.25952148,-0.9567871,0.43188477,0.20678711
-0.9675293,0.5983887,0.27294922,-0.9909668,0.5527344,0.25952148
-0.9645996,0.57958984,0.25878906,-0.9675293,0.5983887,0.27294922
-0.98779297,0.47607422,0.24780273,-0.9645996,0.57958984,0.25878906
-0.9902344,0.36010742,0.1665039,-0.98779297,0.47607422,0.24780273
-0.99853516,0.33398438,0.12548828,-0.9902344,0.36010742,0.1665039
-0.99365234,0.3408203,0.0715332,-0.99853516,0.33398438,0.12548828
-0.98461914,0.35668945,0.036865234,-0.99365234,0.3408203,0.0715332
-0.97509766,0.35131836,-0.01977539,-0.99365234,0.3408203,0.0715332
-0.95214844,0.34448242,-0.12451172,-0.97509766,0.35131836,-0.01977539
-0.9213867,0.3317871,-0.21118164,-0.95214844,0.34448242,-0.12451172
-0.8847656,0.34301758,-0.2368164,-0.95214844,0.34448242,-0.12451172
-0.84594727,0.25830078,-0.35742188,-0.8847656,0.34301758,-0.2368164
-0.8544922,0.27978516,-0.3881836,-0.84594727,0.25830078,-0.35742188
-0.81884766,0.27954102,-0.40844727,-0.84594727,0.25830078,-0.35742188
-0.78344727,0.19091797,-0.5078125,-0.81884766,0.27954102,-0.40844727
-0.80078125,0.038330078,-0.60546875,-0.78344727,0.19091797,-0.5078125
-0.7805176,-0.009033203,-0.6689453,-0.78344727,0.19091797,-0.5078125
-0.78393555,-0.009033203,-0.7434082,-0.7805176,-0.009033203,-0.6689453
-0.7524414,0.07495117,-0.77368164,-0.78393555,-0.009033203,-0.7434082
-0.7336426,0.07470703,-0.7841797,-0.78393555,-0.009033203,-0.7434082
-0.7062988,0.00390625,-0.8679199,-0.7336426,0.07470703,-0.7841797
-0.673584,-0.14941406,-0.99731445,-0.7062988,0.00390625,-0.8679199
-0.67529297,-0.18041992,-1.0231934,-0.7062988,0.00390625,-0.8679199
-0.67626953,-0.20361328,-1.0419922,-0.67529297,-0.18041992,-1.0231934
-0.66845703,-0.15820313,-1.0231934,-0.67626953,-0.20361328,-1.0419922
-0.6772461,-0.12475586,-1.0283203,-0.67626953,-0.20361328,-1.0419922
-0.66259766,-0.111083984,-1.0168457,-0.6772461,-0.12475586,-1.0283203
-0.6711426,-0.05493164,-0.98046875,-0.66259766,-0.111083984,-1.0168457
-0.68652344,-0.05493164,-0.9436035,-0.66259766,-0.111083984,-1.0168457
-0.7331543,0.022705078,-0.84472656,-0.68652344,-0.05493164,-0.9436035
-0.7590332,0.08178711,-0.74731445,-0.7331543,0.022705078,-0.84472656
-0.7524414,0.09716797,-0.69555664,-0.7590332,0.08178711,-0.74731445
-0.7792969,0.17236328,-0.57666016,-0.7524414,0.09716797,-0.69555664
-0.77319336,0.3149414,-0.40820313,-0.7792969,0.17236328,-0.57666016
-0.7988281,0.37841797,-0.29418945,-0.77319336,0.3149414,-0.40820313
-0.8469238,0.45385742,-0.15039063,-0.7988281,0.37841797,-0.29418945
-0.89331055,0.39233398,-0.0546875,-0.8469238,0.45385742,-0.15039063
-0.9069824,0.3310547,-0.024658203,-0.89331055,0.39233398,-0.0546875
-0.92333984,0.34887695,0.06689453,-0.9069824,0.3310547,-0.024658203
-0.9152832,0.484375,0.18554688,-0.92333984,0.34887695,0.06689453
-0.935791,0.5305176,0.2487793,-0.9152832,0.484375,0.18554688
-0.94018555,0.53515625,0.3005371,-0.935791,0.5305176,0.2487793
-0.9658203,0.532959,0.31298828,-0.94018555,0.53515625,0.3005371
-0.9699707,0.51000977,0.31445313,-0.9658203,0.532959,0.31298828
-0.96435547,0.45507813,0.31420898,-0.9699707,0.51000977,0.31445313
-0.935791,0.5332031,0.26586914,-0.96435547,0.45507813,0.31420898
-0.91552734,0.57836914,0.24609375,-0.935791,0.5332031,0.26586914
-0.9421387,0.546875,0.14453125,-0.91552734,0.57836914,0.24609375
-0.9550781,0.52001953,0.036865234,-0.9421387,0.546875,0.14453125
-0.95825195,0.50341797,0.02734375,-0.9550781,0.52001953,0.036865234
-0.92578125,0.513916,0.028320313,-0.95825195,0.50341797,0.02734375
-0.9050293,0.47436523,-0.003662109,-0.92578125,0.513916,0.028320313
-0.90405273,0.31103516,-0.12963867,-0.9050293,0.47436523,-0.003662109
-0.94628906,0.15356445,-0.26123047,-0.90405273,0.31103516,-0.12963867
-0.8967285,0.27148438,-0.25,-0.94628906,0.15356445,-0.26123047
-0.8913574,0.33911133,-0.2619629,-0.8967285,0.27148438,-0.25
-0.85717773,0.2685547,-0.39331055,-0.8913574,0.33911133,-0.2619629
-0.8215332,0.17773438,-0.54833984,-0.85717773,0.2685547,-0.39331055
-0.79589844,0.19213867,-0.5673828,-0.8215332,0.17773438,-0.54833984
-0.76220703,0.23095703,-0.55029297,-0.79589844,0.19213867,-0.5673828
-0.7338867,0.02709961,-0.69970703,-0.76220703,0.23095703,-0.55029297
-0.7277832,0.004882813,-0.76049805,-0.7338867,0.02709961,-0.69970703
-0.70336914,0,-0.8498535,-0.7277832,0.004882813,-0.76049805
-0.6867676,-0.005371094,-0.939209,-0.70336914,0,-0.8498535
-0.6706543,0.021972656,-0.9645996,-0.70336914,0,-0.8498535
-0.66308594,0.033935547,-0.9465332,-0.6706543,0.021972656,-0.9645996
-0.6447754,-0.06665039,-0.9602051,-0.66308594,0.033935547,-0.9465332
-0.62353516,-0.12158203,-1.0021973,-0.66308594,0.033935547,-0.9465332
-0.58447266,-0.21459961,-1.0456543,-0.62353516,-0.12158203,-1.0021973
-0.54003906,-0.19482422,-1.0834961,-0.58447266,-0.21459961,-1.0456543
-0.56396484,-0.15649414,-1.0581055,-0.58447266,-0.21459961,-1.0456543
-0.5966797,-7.32E-04,-0.9567871,-0.56396484,-0.15649414,-1.0581055
-0.6401367,0.15112305,-0.86279297,-0.5966797,-7.32E-04,-0.9567871
-0.6669922,0.118896484,-0.8347168,-0.5966797,-7.32E-04,-0.9567871
-0.6855469,0.004394531,-0.842041,-0.6669922,0.118896484,-0.8347168
-0.7133789,-0.038330078,-0.79052734,-0.6855469,0.004394531,-0.842041
-0.7023926,-0.007080078,-0.75097656,-0.6855469,0.004394531,-0.842041
-0.71362305,0.17578125,-0.6047363,-0.7023926,-0.007080078,-0.75097656
-0.7663574,0.34570313,-0.43652344,-0.71362305,0.17578125,-0.6047363
-0.7734375,0.34985352,-0.44067383,-0.71362305,0.17578125,-0.6047363
-0.8137207,0.2355957,-0.42626953,-0.7734375,0.34985352,-0.44067383
-0.86035156,0.19213867,-0.36328125,-0.8137207,0.2355957,-0.42626953
-0.8527832,0.23510742,-0.328125,-0.8137207,0.2355957,-0.42626953
-0.8791504,0.41674805,-0.20019531,-0.8527832,0.23510742,-0.328125
-0.9038086,0.50512695,-0.07104492,-0.8791504,0.41674805,-0.20019531
-0.90966797,0.5229492,-0.05102539,-0.8791504,0.41674805,-0.20019531
-0.9765625,0.4753418,-0.017333984,-0.90966797,0.5229492,-0.05102539
-0.9897461,0.34423828,0.002929688,-0.9765625,0.4753418,-0.017333984
-0.96875,0.28222656,0.001464844,-0.9897461,0.34423828,0.002929688
-0.98095703,0.39746094,0.12182617,-0.96875,0.28222656,0.001464844
-0.98095703,0.5563965,0.22973633,-0.98095703,0.39746094,0.12182617
-0.99194336,0.5800781,0.25097656,-0.98095703,0.5563965,0.22973633
-0.99731445,0.5444336,0.21899414,-0.99194336,0.5800781,0.25097656
-0.9958496,0.41259766,0.14379883,-0.99731445,0.5444336,0.21899414
-0.9946289,0.36767578,0.13793945,-0.9958496,0.41259766,0.14379883
-0.97998047,0.38085938,0.103515625,-0.9946289,0.36767578,0.13793945
-0.99438477,0.43725586,0.08227539,-0.97998047,0.38085938,0.103515625
-0.95043945,0.48828125,0.052490234,-0.99438477,0.43725586,0.08227539
-0.9296875,0.48413086,-0.028320313,-0.95043945,0.48828125,0.052490234
-0.9304199,0.37353516,-0.16040039,-0.9296875,0.48413086,-0.028320313
-0.94628906,0.3034668,-0.23022461,-0.9304199,0.37353516,-0.16040039
-0.90625,0.30493164,-0.27734375,-0.94628906,0.3034668,-0.23022461
-0.86743164,0.49951172,-0.24926758,-0.90625,0.30493164,-0.27734375
-0.85131836,0.5205078,-0.26611328,-0.86743164,0.49951172,-0.24926758
-0.8269043,0.4177246,-0.37402344,-0.85131836,0.5205078,-0.26611328
-0.8244629,0.30908203,-0.46655273,-0.8269043,0.4177246,-0.37402344
-0.80126953,0.24511719,-0.49926758,-0.8244629,0.30908203,-0.46655273
-0.77734375,0.26293945,-0.49731445,-0.80126953,0.24511719,-0.49926758
-0.7138672,0.34472656,-0.4621582,-0.77734375,0.26293945,-0.49731445
-0.70458984,0.3840332,-0.45483398,-0.7138672,0.34472656,-0.4621582
-0.6520996,0.29956055,-0.57177734,-0.70458984,0.3840332,-0.45483398
-0.68774414,0.17138672,-0.6291504,-0.6520996,0.29956055,-0.57177734
-0.70166016,0.15942383,-0.6430664,-0.68774414,0.17138672,-0.6291504
-0.70410156,0.21557617,-0.62060547,-0.70166016,0.15942383,-0.6430664
-0.6345215,0.32983398,-0.55322266,-0.70410156,0.21557617,-0.62060547
-0.6003418,0.3269043,-0.56469727,-0.6345215,0.32983398,-0.55322266
-0.57250977,0.19482422,-0.63256836,-0.6003418,0.3269043,-0.56469727
-0.49853516,0.1303711,-0.7224121,-0.57250977,0.19482422,-0.63256836
-0.4645996,0.22436523,-0.72021484,-0.49853516,0.1303711,-0.7224121
-0.40942383,0.3544922,-0.6538086,-0.4645996,0.22436523,-0.72021484
-0.3317871,0.45629883,-0.47753906,-0.40942383,0.3544922,-0.6538086
-0.29956055,0.46972656,-0.48217773,-0.40942383,0.3544922,-0.6538086
-0.1640625,0.23779297,-0.59814453,-0.29956055,0.46972656,-0.48217773
-0.18554688,0.20825195,-0.68408203,-0.1640625,0.23779297,-0.59814453
-0.25024414,0.13110352,-0.6340332,-0.1640625,0.23779297,-0.59814453
-0.2902832,0.13623047,-0.63061523,-0.25024414,0.13110352,-0.6340332
-0.20898438,0.32861328,-0.45629883,-0.2902832,0.13623047,-0.63061523
-0.25,0.37353516,-0.44311523,-0.2902832,0.13623047,-0.63061523
-0.18286133,0.27514648,-0.45996094,-0.25,0.37353516,-0.44311523
-0.31762695,0.12695313,-0.5227051,-0.18286133,0.27514648,-0.45996094
-0.30126953,0.063964844,-0.5583496,-0.18286133,0.27514648,-0.45996094
-0.20703125,0.08544922,-0.5871582,-0.30126953,0.063964844,-0.5583496
